"Time (s)","Linear Acceleration x (m/s^2)","Linear Acceleration y (m/s^2)","Linear Acceleration z (m/s^2)"
8.721063100E-2,0.000000000E0,0.000000000E0,0.000000000E0
9.203255800E-2,9.141564369E-4,9.281158447E-3,-3.728723526E-2
9.685448500E-2,-6.850481033E-3,2.015972137E-2,-6.979131699E-2
1.016764640E-1,-8.112162352E-3,2.715826035E-2,-7.696485519E-2
1.064983910E-1,-3.432458639E-2,2.486181259E-2,-7.170963287E-2
1.113203180E-1,-5.504018068E-2,1.700162888E-2,-1.062498093E-1
1.161422980E-1,-9.897834063E-2,4.268264771E-2,-1.675262451E-1
1.209642250E-1,-1.236257255E-1,3.083467484E-2,-2.222261429E-1
1.257861520E-1,-1.113788635E-1,-2.020692825E-2,-2.377948761E-1
1.306081310E-1,-7.949653268E-2,-7.763910294E-2,-2.412867546E-1
1.354300580E-1,-5.946287513E-2,-1.474637985E-1,-2.332863808E-1
1.402519850E-1,-3.362002969E-2,-1.749300957E-1,-1.868329048E-1
1.450739120E-1,-4.298052192E-2,-1.625313759E-1,-1.438207626E-1
1.498958910E-1,-3.528746963E-2,-1.284999847E-1,-7.678842545E-2
1.547178180E-1,-3.650316596E-2,-8.513689041E-2,-2.354812622E-2
1.595397460E-1,-4.053190351E-2,-3.826141357E-2,3.064489365E-2
1.643617250E-1,-6.190308928E-2,-1.471328735E-2,8.051347733E-2
1.691836520E-1,-7.808226347E-2,1.070737839E-2,1.119251251E-1
1.740055790E-1,-9.597149491E-2,1.998853683E-2,1.362633705E-1
1.788275580E-1,-8.256116509E-2,1.969623566E-2,1.437773705E-1
1.836494850E-1,-5.294202268E-2,1.595354080E-2,1.625924110E-1
1.884714120E-1,-3.520280123E-2,-5.942821503E-3,1.717009544E-1
1.932933910E-1,-1.722985506E-2,-1.558876038E-2,2.126770020E-1
1.981153180E-1,-1.598057151E-2,-1.130247116E-2,2.315001488E-1
2.029372460E-1,-2.833577991E-2,8.585453033E-3,2.416296005E-1
2.077591730E-1,-4.436135292E-2,3.672599792E-2,2.204737663E-1
2.125811520E-1,-3.162860870E-2,4.297924042E-2,1.875691414E-1
2.174030790E-1,7.903277874E-4,4.097747803E-2,1.410636902E-1
2.222250060E-1,2.111209929E-2,4.380702972E-2,9.872627258E-2
2.270469850E-1,7.696825266E-2,3.169536591E-2,2.219390869E-2
2.318689120E-1,1.368938535E-1,2.489995956E-2,-1.452875137E-2
2.366908390E-1,1.679728776E-1,2.318620682E-2,-4.177904129E-2
2.415128180E-1,1.984719634E-1,3.907585144E-2,-3.791809082E-2
2.463347460E-1,2.048146874E-1,5.570077896E-2,-4.228115082E-2
2.511566730E-1,2.026335299E-1,5.786848068E-2,-2.799177170E-2
2.559786000E-1,1.817327440E-1,6.221342087E-2,-1.653194427E-2
2.608005790E-1,1.742652655E-1,7.920026779E-2,-1.359033585E-2
2.656225060E-1,1.523369551E-1,7.471752167E-2,-4.992485046E-3
2.704444330E-1,1.213907897E-1,8.425903320E-2,1.492452621E-2
2.752664120E-1,7.023748755E-2,1.192011833E-1,1.444768906E-2
2.800883390E-1,5.784171820E-2,1.030445099E-1,4.187011719E-2
2.849102660E-1,-7.164478302E-4,9.997606277E-2,8.713340759E-2
2.897322460E-1,-7.281851768E-2,8.977222443E-2,1.393074989E-1
2.945541730E-1,-1.429216415E-1,8.179712296E-2,1.899557114E-1
2.993761000E-1,-2.192483842E-1,8.297443390E-2,2.461390495E-1
3.041980790E-1,-2.759962082E-1,5.326032639E-2,2.574133873E-1
3.090200060E-1,-3.264800310E-1,4.841852188E-2,2.681670189E-1
3.138419330E-1,-3.568120003E-1,3.400230408E-2,2.597250938E-1
3.186638600E-1,-3.838410974E-1,-6.054401398E-3,2.279410362E-1
3.234858390E-1,-3.829568326E-1,-4.303216934E-2,1.792154312E-1
3.283077660E-1,-3.874219358E-1,-8.747768402E-2,1.092433929E-1
3.331296930E-1,-3.456117511E-1,-1.215219498E-1,4.670238495E-2
3.379516730E-1,-2.773561180E-1,-1.546788216E-1,-2.257633209E-2
3.427736000E-1,-2.091883272E-1,-1.880512238E-1,-1.124877930E-1
3.475955270E-1,-1.447114199E-1,-1.840462685E-1,-1.827569008E-1
3.524175060E-1,-9.562584758E-2,-1.913852692E-1,-2.524571419E-1
3.572394330E-1,-7.218703628E-2,-1.827745438E-1,-3.215789795E-1
3.620613600E-1,-5.286498368E-2,-1.619548798E-1,-3.724727631E-1
3.668832870E-1,-4.953977466E-2,-1.409215927E-1,-3.937492371E-1
3.717052660E-1,-2.561125159E-2,-1.089768410E-1,-3.893308640E-1
3.765271930E-1,-3.794911504E-2,-9.108638763E-2,-3.726673126E-1
3.813491210E-1,-2.466382086E-2,-4.826831818E-2,-3.487567902E-1
3.861711000E-1,-3.185182810E-2,-2.703428268E-2,-2.896680832E-1
3.909930270E-1,-4.025191069E-2,-2.362918854E-2,-2.054738998E-1
3.958149540E-1,-2.268931270E-2,-2.245903015E-4,-1.296520233E-1
4.006369330E-1,1.232063770E-2,6.270408630E-3,-5.506372452E-2
4.054588600E-1,3.382869065E-2,4.318189621E-2,3.359127045E-2
4.102807870E-1,4.084472358E-2,8.414649963E-2,1.007828712E-1
4.151027660E-1,8.842751384E-3,1.254611015E-1,1.844491959E-1
4.199246930E-1,-4.158088565E-2,1.316018105E-1,2.747926712E-1
4.247466210E-1,-7.943612337E-2,1.501836777E-1,3.539900780E-1
4.295685480E-1,-9.440255165E-2,1.172327995E-1,4.174079895E-1
4.343905270E-1,-1.045408174E-1,7.951068878E-2,4.417362213E-1
4.392124540E-1,-9.591813385E-2,4.421567917E-2,4.334855080E-1
4.440343810E-1,-8.304609358E-2,-3.894329071E-3,4.109487534E-1
4.488563600E-1,-1.014366373E-1,-2.802991867E-2,3.696231842E-1
4.536782870E-1,-1.281718612E-1,-6.252431870E-2,2.922592163E-1
4.585002140E-1,-1.546643227E-1,-8.711576462E-2,1.899790764E-1
4.633221930E-1,-1.736262888E-1,-8.779096603E-2,9.373903275E-2
4.681441210E-1,-2.051197588E-1,-3.988599777E-2,-1.886177063E-2
4.729660480E-1,-2.299620807E-1,-6.432533264E-4,-1.038789749E-1
4.777879750E-1,-2.553934455E-1,5.962705612E-2,-1.982793808E-1
4.826099540E-1,-2.223042250E-1,8.987426758E-2,-2.665090561E-1
4.874318810E-1,-2.236614227E-1,1.117901802E-1,-3.218498230E-1
4.922538080E-1,-2.023270726E-1,1.113104820E-1,-3.325219154E-1
4.970757870E-1,-1.927710176E-1,1.111221313E-1,-3.239240646E-1
5.018977140E-1,-1.795029044E-1,8.039045334E-2,-3.046360016E-1
5.067196410E-1,-1.518348008E-1,6.913328171E-2,-2.712259293E-1
5.115416210E-1,-1.407587528E-1,6.158876419E-2,-1.908822060E-1
5.163635480E-1,-1.390443593E-1,4.942655563E-2,-1.102528572E-1
5.211854750E-1,-1.278169006E-1,3.499841690E-2,-2.819538116E-2
5.260074540E-1,-1.073369086E-1,1.703310013E-2,5.044937134E-2
5.308293810E-1,-6.013596058E-2,-2.462816238E-2,1.457891464E-1
5.356513080E-1,-4.817081988E-2,-4.606533051E-2,2.350544930E-1
5.404732870E-1,-3.436900675E-2,-6.645727158E-2,3.088378906E-1
5.452952140E-1,-3.646571934E-2,-6.687498093E-2,3.483729362E-1
5.501171410E-1,-4.934108257E-2,-6.536483765E-2,3.574833870E-1
5.549390680E-1,-3.847560287E-2,-3.582382202E-2,3.590526581E-1
5.597610480E-1,-3.262145817E-2,-3.528785706E-2,3.319339752E-1
5.645829750E-1,-2.813388407E-2,-3.388404846E-2,2.941408157E-1
5.694049020E-1,-2.967612445E-2,-3.279733658E-2,2.410430908E-1
5.742268810E-1,-4.908640683E-2,-1.668214798E-2,1.727185249E-1
5.790488080E-1,-3.993850946E-2,2.298355103E-4,1.166849136E-1
5.838707350E-1,-3.787091374E-2,1.794576645E-2,2.897787094E-2
5.886927140E-1,-5.220596492E-2,2.714967728E-2,-5.083656311E-2
5.935146410E-1,-4.000473022E-2,4.585313797E-2,-1.309905052E-1
5.983365680E-1,-3.210888803E-2,5.865287781E-2,-2.102208138E-1
6.031584960E-1,-4.021964967E-2,6.215906143E-2,-2.659177780E-1
6.079804750E-1,-1.923929155E-2,6.235265732E-2,-2.888545990E-1
6.128024020E-1,-3.956511617E-3,4.503774643E-2,-2.781400681E-1
6.176243290E-1,1.114591956E-2,2.103757858E-2,-2.565946579E-1
6.224463080E-1,2.098983526E-2,-9.603977203E-3,-1.958551407E-1
6.272682350E-1,2.538438141E-2,-2.207040787E-2,-1.367154121E-1
6.320901620E-1,6.609931588E-3,-1.768779755E-2,-8.031845093E-2
6.369121410E-1,5.954504013E-4,-6.139755249E-3,-2.194213867E-2
6.417340680E-1,2.712756395E-4,-6.525516510E-3,2.647686005E-2
6.465559960E-1,1.411284506E-2,-1.766443253E-2,7.796144485E-2
6.513779750E-1,6.926208735E-4,5.501747131E-3,1.477937698E-1
6.561999020E-1,6.667524576E-4,2.699947357E-2,1.835274696E-1
6.610218290E-1,-2.053546906E-2,6.812095642E-2,2.245187759E-1
6.658438080E-1,-3.303584456E-2,1.025590897E-1,2.623662949E-1
6.706657350E-1,-3.204138577E-2,1.232805252E-1,2.639021873E-1
6.754876620E-1,-3.073699772E-2,1.233487129E-1,2.389931679E-1
6.803095890E-1,-3.977987170E-2,9.824275970E-2,2.092709541E-1
6.851315680E-1,-5.700080842E-2,5.543804169E-2,1.784963608E-1
6.899534960E-1,-4.096546769E-2,1.136779785E-3,1.396884918E-1
6.947754230E-1,-3.597952425E-2,-4.793596268E-2,8.819198608E-2
6.995974020E-1,-1.585939527E-2,-6.793308258E-2,2.902364731E-2
7.044193290E-1,6.085216999E-3,-6.025600433E-2,-4.127931595E-2
7.092412560E-1,3.582997620E-2,-4.877567291E-2,-9.880447388E-2
7.140632350E-1,7.681642473E-2,-4.290628433E-2,-1.649007797E-1
7.188851620E-1,9.709562361E-2,-2.232122421E-2,-2.370162010E-1
7.237070890E-1,1.160244793E-1,-2.508020401E-2,-2.960896492E-1
7.285290680E-1,1.089506298E-1,-4.853534698E-2,-3.279151917E-1
7.333509960E-1,8.578392863E-2,-8.302259445E-2,-3.481464386E-1
7.381729230E-1,6.813468039E-2,-9.633398056E-2,-3.567986488E-1
7.429949020E-1,4.170013964E-2,-9.817123413E-2,-3.611154556E-1
7.478168290E-1,1.939523220E-2,-7.676410675E-2,-3.528203964E-1
7.526387560E-1,-7.396340370E-3,-5.251789093E-2,-2.988314629E-1
7.574606830E-1,-3.296501935E-2,-3.991365433E-2,-2.389025688E-1
7.622826620E-1,-5.617445707E-2,-3.656148911E-2,-1.731648445E-1
7.671045890E-1,-6.626492739E-2,-4.257392883E-2,-9.949350357E-2
7.719265160E-1,-8.223003149E-2,-3.297805786E-2,-4.645299911E-2
7.767484960E-1,-7.879871130E-2,-4.433631897E-3,1.094436646E-2
7.815704230E-1,-7.498573512E-2,2.504682541E-2,3.463029861E-2
7.863923500E-1,-4.705809802E-2,5.892419815E-2,8.648586273E-2
7.912143290E-1,-2.512045205E-2,7.337236404E-2,1.484203339E-1
7.960362560E-1,2.024641633E-2,6.836509705E-2,2.165946960E-1
8.008581830E-1,2.801139653E-2,1.044745445E-1,2.683167458E-1
8.056801100E-1,2.337493002E-2,1.137037277E-1,2.965726852E-1
8.105020890E-1,3.376254439E-2,1.152205467E-1,3.098211288E-1
8.153240160E-1,4.099065065E-2,1.316733360E-1,3.165369034E-1
8.201459430E-1,5.224619806E-2,1.154885292E-1,2.942414284E-1
8.249679230E-1,5.916641653E-2,7.764434814E-2,2.752404213E-1
8.297898500E-1,7.016269863E-2,4.569005966E-2,2.489113808E-1
8.346118290E-1,7.822348177E-2,2.558660507E-2,2.070932388E-1
8.394337560E-1,5.273091793E-2,3.152275085E-2,1.416568756E-1
8.442556830E-1,4.765591025E-2,3.133821487E-2,8.373594284E-2
8.490776100E-1,4.168005288E-2,4.165410995E-2,4.152679443E-2
8.538995890E-1,2.638623118E-2,5.407714844E-2,1.371383667E-2
8.587215160E-1,-5.432814360E-3,5.912876129E-2,-9.278774261E-3
8.635434430E-1,-4.083360732E-2,4.022121429E-2,-1.922225952E-2
8.683654230E-1,-8.466996253E-2,-7.343292236E-5,-2.689933777E-2
8.731873500E-1,-1.237434074E-1,-9.856224060E-4,-1.681900024E-2
8.780092770E-1,-1.672523916E-1,-3.259658813E-3,-2.362585068E-2
8.828312560E-1,-2.100938261E-1,4.993915558E-3,-1.988649368E-2
8.876531830E-1,-2.295484990E-1,4.615211487E-2,-4.588127136E-3
8.924751100E-1,-2.363941669E-1,7.358026505E-2,3.631114960E-2
8.972970890E-1,-2.316776216E-1,6.127929688E-2,5.393791199E-2
9.021190160E-1,-2.035545111E-1,4.650783539E-2,4.389286041E-2
9.069409430E-1,-1.689248681E-1,4.227399826E-2,6.804084778E-2
9.117629230E-1,-1.517663151E-1,3.063535690E-2,1.058697701E-1
9.165848500E-1,-1.379233599E-1,1.168298721E-2,1.418790817E-1
9.214067770E-1,-1.192322150E-1,8.047103882E-3,1.654410362E-1
9.262287040E-1,-1.065811217E-1,-1.235532761E-2,1.648831367E-1
9.310506830E-1,-7.633354515E-2,-2.080249786E-2,1.464543343E-1
9.358726100E-1,-9.636476636E-3,-2.210187912E-2,1.127161980E-1
9.406945370E-1,1.465460658E-2,-1.980686188E-2,9.353303909E-2
9.455165160E-1,5.257596076E-2,-4.119443893E-2,6.984281540E-2
9.503384430E-1,1.002333909E-1,-3.618907928E-2,4.411315918E-2
9.551603710E-1,1.089526713E-1,-4.533815384E-2,-2.403259277E-4
9.599823500E-1,1.231355220E-1,-5.422687531E-2,-6.300354004E-2
9.648042770E-1,1.346700042E-1,-7.343530655E-2,-9.883737564E-2
9.696262040E-1,1.603154391E-1,-4.818391800E-2,-1.647953987E-1
9.744481830E-1,1.667937636E-1,-2.615976334E-2,-2.284483910E-1
9.792701100E-1,1.886946708E-1,-3.810358047E-2,-2.849841118E-1
9.840920370E-1,2.198552638E-1,-3.502035141E-2,-3.130316734E-1
9.889139640E-1,2.317837775E-1,-3.019666672E-2,-3.283705711E-1
9.937359430E-1,2.353275120E-1,-3.197288513E-2,-3.085837364E-1
9.985578710E-1,2.173963785E-1,-3.686332703E-2,-2.825717926E-1
1.003379798E0,1.922818124E-1,-6.895065308E-3,-2.254872322E-1
1.008201777E0,1.433683187E-1,-2.544832230E-2,-1.910161972E-1
1.013023704E0,1.016851664E-1,-5.182838440E-2,-1.410551071E-1
1.017845631E0,9.809018672E-2,-5.401468277E-2,-1.007323265E-1
1.022667610E0,8.716553450E-2,-5.950021744E-2,-7.352781296E-2
1.027489537E0,6.070010364E-2,-5.761814117E-2,-3.564500809E-2
1.032311464E0,7.681357861E-2,-5.560016632E-2,1.396274567E-2
1.037133443E0,9.373587370E-2,-7.251930237E-2,5.730390549E-2
1.041955371E0,6.053569913E-2,-6.445550919E-2,9.309864044E-2
1.046777298E0,2.764143050E-2,-4.587173462E-2,1.285028458E-1
1.051599277E0,2.152180672E-2,-7.391452789E-3,1.350054741E-1
1.056421204E0,6.777614355E-3,1.167011261E-2,1.140246391E-1
1.061243131E0,-1.293721795E-2,2.344465256E-2,8.013534546E-2
1.066065110E0,1.114003360E-2,-2.865314484E-3,6.072330475E-2
1.070887037E0,-4.585281014E-3,-3.836107254E-2,2.849721909E-2
1.075708964E0,4.841387272E-4,-5.807781219E-2,-3.406047821E-3
1.080530943E0,-2.622869611E-2,-1.141824722E-1,-3.598928452E-2
1.085352871E0,-1.946608722E-2,-1.339306831E-1,-8.933210373E-2
1.090174798E0,-5.768805742E-3,-1.164298058E-1,-1.193490028E-1
1.094996777E0,1.467418671E-2,-9.886264801E-2,-1.500563622E-1
1.099818704E0,4.880394042E-2,-7.418394089E-2,-1.566085815E-1
1.104640631E0,8.579291403E-2,-4.607391357E-2,-1.641869545E-1
1.109462610E0,8.880682290E-2,3.215312958E-3,-1.478891373E-1
1.114284537E0,8.771908283E-2,2.609157562E-2,-1.588835716E-1
1.119106464E0,6.947296858E-2,4.164266586E-2,-1.199483871E-1
1.123928391E0,6.834402680E-3,6.647443771E-2,-8.021211624E-2
1.128750371E0,-2.602852881E-2,9.561967850E-2,-2.205085754E-2
1.133572298E0,-3.261771798E-2,1.041169167E-1,3.300666809E-2
1.138394225E0,-3.772628307E-2,1.299796104E-1,9.907293320E-2
1.143216204E0,-1.259973645E-2,1.386656761E-1,1.594467163E-1
1.148038131E0,-3.557637334E-3,1.219449043E-1,2.022294998E-1
1.152860058E0,9.766846895E-3,1.096940041E-1,2.548556328E-1
1.157682037E0,1.173025370E-2,9.475564957E-2,2.923297882E-1
1.162503964E0,3.073057532E-2,6.888723373E-2,3.172020912E-1
1.167325891E0,-7.171377540E-3,8.790636063E-2,3.473396301E-1
1.172147871E0,-5.663120747E-2,1.229777336E-1,3.328881264E-1
1.176969798E0,-2.877771854E-2,1.277198792E-1,3.312001228E-1
1.181791725E0,1.515200734E-2,1.071739197E-1,3.137459755E-1
1.186613704E0,5.733974278E-2,6.161928177E-2,2.439460754E-1
1.191435631E0,8.963550627E-2,2.571392059E-2,1.839790344E-1
1.196257558E0,1.193653941E-1,-2.787923813E-2,1.112480164E-1
1.201079537E0,7.874503732E-2,3.239154816E-3,3.915691376E-2
1.205901464E0,3.344495595E-2,5.675029755E-2,-4.407072067E-2
1.210723391E0,3.452569246E-3,1.110816002E-1,-7.785797119E-2
1.215545318E0,1.327876747E-2,1.245903969E-1,-8.527421951E-2
1.220367298E0,4.114791751E-2,1.117067337E-1,-9.042692184E-2
1.225189225E0,4.679474235E-2,1.010856628E-1,-6.965589523E-2
1.230011152E0,3.663697839E-2,8.676624298E-2,-7.183885574E-2
1.234833131E0,2.298930287E-2,6.180858612E-2,-8.002138138E-2
1.239655058E0,8.493870497E-3,3.113651276E-2,-9.050369263E-2
1.244476985E0,-2.923561633E-2,-5.065441132E-3,-8.651065826E-2
1.249298964E0,-4.020798206E-2,-2.301311493E-2,-6.696701050E-2
1.254120891E0,-2.947805822E-2,-5.613183975E-2,-3.086853027E-2
1.258942818E0,-1.752981544E-2,-8.423328400E-2,1.322603226E-2
1.263764798E0,-1.623320580E-2,-1.073861122E-1,6.403160095E-2
1.268586725E0,-4.347135127E-2,-1.423602104E-1,1.106929779E-1
1.273408652E0,-7.889045775E-2,-1.522612572E-1,1.200413704E-1
1.278230631E0,-1.319481730E-1,-1.443753242E-1,1.161656380E-1
1.283052558E0,-1.800123751E-1,-1.009263992E-1,1.111803055E-1
1.287874485E0,-1.932603717E-1,-8.752059937E-2,7.655382156E-2
1.292696464E0,-2.206398994E-1,-4.810810089E-2,3.155660629E-2
1.297518391E0,-2.156309485E-1,-2.447986603E-2,-1.240253448E-3
1.302340318E0,-2.176412791E-1,-1.121044159E-3,-7.746696472E-3
1.307162298E0,-2.063303292E-1,1.489925385E-2,-4.270887375E-2
1.311984225E0,-2.028198689E-1,3.084039688E-2,-9.276342392E-2
1.316806152E0,-2.021595091E-1,4.806470871E-2,-1.243753433E-1
1.321628131E0,-1.910807639E-1,5.357837677E-2,-1.732230186E-1
1.326450058E0,-1.660871208E-1,7.489156723E-2,-2.058062553E-1
1.331271985E0,-1.343931258E-1,1.166248322E-1,-2.258110046E-1
1.336093912E0,-1.046712101E-1,1.452646255E-1,-1.931271553E-1
1.340915891E0,-4.274642467E-2,1.549992561E-1,-1.663074493E-1
1.345737818E0,6.770791113E-2,2.170977592E-1,-1.216588020E-1
1.350559746E0,1.883967817E-1,3.134260178E-1,-1.327781677E-1
1.355381725E0,3.773458600E-1,4.366984367E-1,-1.563591957E-1
1.360203652E0,5.671948195E-1,5.735197067E-1,-1.615753174E-1
1.365025631E0,6.557745934E-1,5.752682686E-1,-5.862808228E-2
1.369847558E0,6.416590214E-1,5.983161926E-1,3.392124176E-2
1.374669485E0,6.071346998E-1,6.507496834E-1,1.623969078E-1
1.379491412E0,5.532972813E-1,7.073154449E-1,2.528438568E-1
1.384313391E0,3.697201312E-1,6.478171349E-1,3.775920868E-1
1.389135318E0,2.581581473E-3,4.333119392E-1,6.352233887E-1
1.393957246E0,-3.253873885E-1,2.756447792E-1,9.682235718E-1
1.398779225E0,-6.537773609E-1,6.574306488E-1,1.067728519E0
1.403601152E0,-1.231901288E0,1.433755875E0,1.066640854E0
1.408423079E0,-2.377535582E0,2.775850296E0,1.378609657E0
1.413245058E0,-1.945096374E0,3.347724915E0,1.270252705E0
1.418066985E0,-6.026219726E-1,4.497623444E0,1.642870903E0
1.422888912E0,-1.410837770E-1,4.780191898E0,2.154561520E0
1.427710891E0,-9.953660518E-2,4.649955750E0,2.563828945E0
1.432532818E0,-8.660800755E-2,4.469220638E0,3.008022308E0
1.437354746E0,-8.191199601E-2,4.284271717E0,3.458351135E0
1.442176725E0,-7.600089163E-2,4.103046894E0,3.905232430E0
1.446998652E0,-7.608069479E-2,3.927550077E0,4.304655075E0
1.451820579E0,-7.639411092E-2,3.743086338E0,4.631900311E0
1.456642558E0,-8.780289441E-2,3.592423916E0,4.838707447E0
1.461464485E0,-9.040473402E-2,3.449058533E0,4.943798065E0
1.466286412E0,-8.452743292E-2,3.330758572E0,4.949212551E0
1.471108391E0,-9.681756794E-2,3.224342346E0,4.840398312E0
1.475930318E0,-8.477360010E-2,3.162092686E0,4.608881950E0
1.480752246E0,-8.698433638E-2,3.089231014E0,4.308264732E0
1.485574225E0,-7.407277822E-2,3.033487320E0,3.908501625E0
1.490396152E0,-6.205791235E-2,2.986774921E0,3.461903095E0
1.495218079E0,-5.252292752E-2,2.929221630E0,3.000363350E0
1.500040006E0,-4.229456186E-2,2.866000175E0,2.554371834E0
1.504861985E0,-2.703768015E-2,2.803537369E0,2.149546623E0
1.509683912E0,-1.304015517E-2,2.709927559E0,1.798162460E0
1.514505839E0,-1.738351583E-2,2.616761684E0,1.506563187E0
1.519327818E0,-2.967566252E-2,2.508928299E0,1.301235199E0
1.524149746E0,-3.584635258E-2,2.417988300E0,1.181185722E0
1.528971673E0,-5.060982704E-2,2.314409256E0,1.128586769E0
1.533793652E0,-7.539224625E-2,2.209448099E0,1.128106117E0
1.538615579E0,-9.853351116E-2,2.108419180E0,1.170399666E0
1.543437506E0,-1.118422747E-1,2.039374352E0,1.242582321E0
1.548259485E0,-1.261575222E-1,1.972976685E0,1.298349380E0
1.553081412E0,-1.510546803E-1,1.926628828E0,1.320166588E0
1.557903339E0,-1.876049638E-1,1.880802870E0,1.333468437E0
1.562725318E0,-2.317493558E-1,1.917587042E0,1.319111824E0
1.567547246E0,4.144445658E-1,-4.757251740E-1,-8.684688568E0
1.572369173E0,6.882187128E-1,-7.685205936E-1,-9.391788483E0
1.577191152E0,-2.487275004E-2,1.864479303E0,-7.678102493E0
1.582013079E0,-2.196917981E-1,2.987023115E0,-2.510666847E0
1.586835006E0,-2.269837111E-1,2.968036413E0,-2.992644310E0
1.591656985E0,-2.397131324E-1,2.909134388E0,-3.402112961E0
1.596478912E0,-2.914432883E-1,2.813889742E0,-3.805139542E0
1.601300839E0,-3.092867136E-1,2.776541471E0,-3.880023479E0
1.606122818E0,-3.242543042E-1,2.723839045E0,-3.715254784E0
1.610944746E0,-3.189097643E-1,2.661838055E0,-3.368016243E0
1.615766673E0,-2.792748213E-1,2.616380215E0,-2.636702061E0
1.620588652E0,-1.944809556E-1,2.550330162E0,-1.857019424E0
1.625410579E0,-8.695143461E-2,2.453749180E0,-7.686119080E-1
1.630232506E0,4.968613386E-2,2.347871065E0,2.774705887E-1
1.635054485E0,2.214293480E-1,2.239337921E0,1.452528000E0
1.639876412E0,3.776781559E-1,2.076364517E0,2.512475967E0
1.644698339E0,4.970837235E-1,1.899094105E0,3.494519234E0
1.649520318E0,6.135644317E-1,1.757093191E0,4.430086136E0
1.654342246E0,6.767098308E-1,1.585450649E0,5.173135757E0
1.659164173E0,6.970663071E-1,1.420534015E0,5.810848236E0
1.663986152E0,6.734583974E-1,1.270426273E0,6.184722900E0
1.668808079E0,5.895719528E-1,1.140604258E0,6.363348961E0
1.673630006E0,4.987505376E-1,1.028532147E0,6.243347168E0
1.678451985E0,3.848556578E-1,9.542765617E-1,5.912261009E0
1.683273912E0,2.793483138E-1,8.867952824E-1,5.421358109E0
1.688095839E0,2.174797356E-1,8.439792395E-1,4.820240021E0
1.692917818E0,1.608802080E-1,7.876605988E-1,4.190293312E0
1.697739746E0,1.253030300E-1,7.395355701E-1,3.596937180E0
1.702561673E0,1.245409250E-1,6.852823496E-1,3.093241692E0
1.707383600E0,1.165932417E-1,6.048310995E-1,2.662833214E0
1.712205579E0,1.229660511E-1,5.089439154E-1,2.400163651E0
1.717027506E0,1.151629686E-1,4.166764021E-1,2.258585930E0
1.721849433E0,8.518111706E-2,2.886489630E-1,2.258380890E0
1.726671412E0,3.453493118E-2,1.307910681E-1,2.404235840E0
1.731493339E0,-5.064749718E-2,-2.605438232E-2,2.667475700E0
1.736315266E0,-1.686427593E-1,-1.880002022E-1,3.018435478E0
1.741137246E0,-2.875525951E-1,-3.790744543E-1,3.445640564E0
1.745959173E0,-4.278590679E-1,-5.683552027E-1,3.848419189E0
1.750781100E0,-5.784641504E-1,-7.725617290E-1,4.234089851E0
1.755603079E0,-7.289204597E-1,-9.501578212E-1,4.601930618E0
1.760425006E0,-8.789341450E-1,-1.161940575E0,4.858557701E0
1.765246933E0,-9.857053757E-1,-1.336223245E0,5.022123337E0
1.770068912E0,-1.070241809E0,-1.505127192E0,5.100263596E0
1.774890839E0,-1.151611447E0,-1.664831638E0,5.062568665E0
1.779712766E0,-1.175479174E0,-1.835322142E0,4.950332642E0
1.784534746E0,-1.194435358E0,-1.975665450E0,4.793916702E0
1.789356673E0,-1.193650723E0,-2.109344244E0,4.566145897E0
1.794178600E0,-1.147390008E0,-2.251388073E0,4.305233002E0
1.799000579E0,-1.108629346E0,-2.355944633E0,4.070403099E0
1.803822506E0,-1.053570390E0,-2.495366812E0,3.826086998E0
1.808644433E0,-9.490811825E-1,-2.585566998E0,3.592489243E0
1.813466412E0,-8.434374332E-1,-2.688145876E0,3.383421898E0
1.818288339E0,-7.098318338E-1,-2.765473843E0,3.174155235E0
1.823110266E0,-5.780624151E-1,-2.823061466E0,2.955313683E0
1.827932246E0,-4.211038351E-1,-2.889044762E0,2.717400551E0
1.832754173E0,-2.591851354E-1,-2.935513496E0,2.441397667E0
1.837576100E0,-1.298030615E-1,-2.982132912E0,2.183529854E0
1.842398079E0,-9.163022041E-3,-3.009371042E0,1.871224403E0
1.847220006E0,1.126239300E-1,-3.040713549E0,1.521825790E0
1.852041933E0,1.980806589E-1,-3.079229116E0,1.136195183E0
1.856863912E0,2.606889009E-1,-3.104232311E0,7.894325256E-1
1.861685839E0,3.204977512E-1,-3.147650242E0,4.528932571E-1
1.866507766E0,3.576756716E-1,-3.178004503E0,1.471033096E-1
1.871329746E0,3.966174126E-1,-3.216577530E0,-8.105945587E-2
1.876151673E0,4.182790518E-1,-3.261779785E0,-2.635478973E-1
1.880973600E0,4.286619425E-1,-3.281108141E0,-3.725137711E-1
1.885795579E0,4.325867295E-1,-3.312498093E0,-3.683118820E-1
1.890617506E0,4.310278594E-1,-3.312671900E0,-2.806558609E-1
1.895439433E0,4.249733686E-1,-3.298078537E0,-9.994888306E-2
1.900261412E0,3.924168944E-1,-3.286328793E0,1.856231689E-1
1.905083339E0,3.602955341E-1,-3.247168303E0,5.279426575E-1
1.909905266E0,2.991280854E-1,-3.211405754E0,9.122571945E-1
1.914727246E0,2.056002915E-1,-3.164377689E0,1.316416740E0
1.919549173E0,1.087213159E-1,-3.116672277E0,1.707414627E0
1.924371100E0,-1.256817579E-2,-3.088314772E0,2.065188408E0
1.929193079E0,-1.397385597E-1,-3.062521458E0,2.341032982E0
1.934015006E0,-2.633454800E-1,-3.046426535E0,2.524470329E0
1.938836933E0,-3.723723888E-1,-3.069898367E0,2.589558601E0
1.943658912E0,-4.503668547E-1,-3.110333204E0,2.508194923E0
1.948480839E0,-4.992986917E-1,-3.199067354E0,2.309908867E0
1.953302766E0,-5.265210867E-1,-3.277821779E0,1.980197906E0
1.958124746E0,-5.054016113E-1,-3.400632858E0,1.553764343E0
1.962946673E0,-4.829044342E-1,-3.536836624E0,1.097778320E0
1.967768600E0,-4.400928020E-1,-3.676105022E0,6.197347641E-1
1.972590579E0,-3.864140511E-1,-3.806830168E0,1.654129028E-1
1.977412506E0,-3.517116308E-1,-3.913791180E0,-2.302131653E-1
1.982234433E0,-3.143308163E-1,-4.012887001E0,-5.643520355E-1
1.987056412E0,-3.053988218E-1,-4.107898235E0,-8.008670807E-1
1.991878339E0,-3.081161976E-1,-4.170392990E0,-9.525747299E-1
1.996700266E0,-3.381097317E-1,-4.207710266E0,-1.032327652E0
2.001522246E0,-3.583150506E-1,-4.248652458E0,-9.992256165E-1
2.006344173E0,-4.237793088E-1,-4.245526791E0,-8.757753372E-1
2.011166100E0,-4.616342187E-1,-4.260489464E0,-6.319751740E-1
2.015988027E0,-5.135047436E-1,-4.238572598E0,-3.011875153E-1
2.020810006E0,-5.421195030E-1,-4.229956150E0,8.323955536E-2
2.025631933E0,-5.599423051E-1,-4.219091415E0,5.094795227E-1
2.030453912E0,-5.554929376E-1,-4.207229137E0,9.238853455E-1
2.035275839E0,-5.325710773E-1,-4.196836472E0,1.311021805E0
2.040097766E0,-5.056190491E-1,-4.204660416E0,1.635049820E0
2.044919746E0,-4.425226152E-1,-4.214177132E0,1.881681442E0
2.049741673E0,-3.840593398E-1,-4.256618023E0,2.026984215E0
2.054563600E0,-3.150729239E-1,-4.304668427E0,2.062518120E0
2.059385579E0,-2.519076467E-1,-4.380114079E0,1.977519035E0
2.064207506E0,-1.850265861E-1,-4.431921005E0,1.746955872E0
2.069029433E0,-1.472076178E-1,-4.502214432E0,1.397210121E0
2.073851412E0,-1.429505348E-1,-4.576962948E0,9.618692398E-1
2.078673339E0,-1.556993127E-1,-4.650438309E0,4.792718887E-1
2.083495266E0,-1.905518770E-1,-4.687189579E0,-1.338577271E-2
2.088317246E0,-2.110159397E-1,-4.749540329E0,-4.945297241E-1
2.093139173E0,-2.321900129E-1,-4.789908409E0,-9.103050232E-1
2.097961100E0,-2.595029473E-1,-4.816923618E0,-1.248714447E0
2.102783027E0,-2.745494843E-1,-4.830711365E0,-1.514524460E0
2.107605006E0,-2.887239456E-1,-4.841023922E0,-1.701679230E0
2.112426933E0,-2.990964651E-1,-4.851567268E0,-1.799365044E0
2.117248912E0,-2.919310927E-1,-4.855285645E0,-1.817077160E0
2.122070839E0,-2.834485769E-1,-4.866697311E0,-1.761840820E0
2.126892766E0,-2.694082558E-1,-4.850104809E0,-1.590568542E0
2.131714746E0,-2.540522814E-1,-4.861840725E0,-1.327082157E0
2.136536673E0,-2.321554273E-1,-4.874499798E0,-9.498233795E-1
2.141358600E0,-2.104826123E-1,-4.878677845E0,-5.220232010E-1
2.146180527E0,-2.080241740E-1,-4.909202576E0,-7.688522339E-3
2.151002506E0,-2.140666544E-1,-4.896960258E0,4.941720963E-1
2.155824433E0,-2.217176557E-1,-4.916227341E0,9.969158173E-1
2.160646360E0,-2.551982105E-1,-4.925312042E0,1.463664055E0
2.165468339E0,-2.911226153E-1,-4.927964211E0,1.887382507E0
2.170290266E0,-3.264652789E-1,-4.943354130E0,2.214374542E0
2.175112246E0,-3.582867086E-1,-4.933379173E0,2.443542480E0
2.179934173E0,-4.012672007E-1,-4.936285973E0,2.546215057E0
2.184756100E0,-4.282080531E-1,-4.918655396E0,2.511665344E0
2.189578027E0,-4.318697453E-1,-4.898336887E0,2.345828056E0
2.194400006E0,-4.274593592E-1,-4.859786987E0,2.059443474E0
2.199221933E0,-4.047366977E-1,-4.824413776E0,1.667998314E0
2.204043860E0,-3.747639060E-1,-4.796856403E0,1.231144905E0
2.208865839E0,-3.411014080E-1,-4.734011173E0,7.702703476E-1
2.213687766E0,-3.013224006E-1,-4.689450264E0,3.377380371E-1
2.218509693E0,-2.420706153E-1,-4.660659790E0,-5.467128754E-2
2.223331673E0,-2.215762138E-1,-4.633200645E0,-3.987302780E-1
2.228153600E0,-2.180094123E-1,-4.602132797E0,-6.599836349E-1
2.232975527E0,-2.179197073E-1,-4.568529606E0,-8.302617073E-1
2.237797506E0,-2.389498353E-1,-4.544250011E0,-9.323997498E-1
2.242619433E0,-2.509215474E-1,-4.525539875E0,-9.223375320E-1
2.247441412E0,-3.084504008E-1,-4.493217945E0,-8.121514320E-1
2.252263339E0,-3.527083397E-1,-4.471070290E0,-6.306142807E-1
2.257085266E0,-4.095578790E-1,-4.448185921E0,-3.407611847E-1
2.261907193E0,-4.725818336E-1,-4.408916473E0,-7.160186768E-3
2.266729173E0,-5.242881775E-1,-4.365030289E0,3.618526459E-1
2.271551100E0,-5.888570547E-1,-4.324719906E0,7.317056656E-1
2.276373027E0,-6.271806359E-1,-4.268683434E0,1.082196236E0
2.281195006E0,-6.354656816E-1,-4.202671528E0,1.390729904E0
2.286016933E0,-6.446537375E-1,-4.141955853E0,1.650213242E0
2.290838912E0,-6.315228939E-1,-4.043316364E0,1.836813927E0
2.295660839E0,-6.218900681E-1,-3.975798130E0,1.945751190E0
2.300482766E0,-5.782425404E-1,-3.908067703E0,1.962663651E0
2.305304746E0,-5.276151896E-1,-3.838608027E0,1.877873421E0
2.310126673E0,-4.732814133E-1,-3.756493568E0,1.723525047E0
2.314948600E0,-4.330360889E-1,-3.682996273E0,1.477911949E0
2.319770527E0,-3.793864846E-1,-3.613203526E0,1.161199570E0
2.324592506E0,-3.485375643E-1,-3.545719624E0,8.113946915E-1
2.329414433E0,-3.052656054E-1,-3.498316050E0,4.270963669E-1
2.334236412E0,-2.766047716E-1,-3.463702440E0,3.680133820E-2
2.339058339E0,-2.623428702E-1,-3.420264006E0,-3.202524185E-1
2.343880266E0,-2.312183678E-1,-3.366758347E0,-6.215744019E-1
2.348702246E0,-2.382514775E-1,-3.302999496E0,-8.817300797E-1
2.353524173E0,-2.165712118E-1,-3.251637936E0,-1.075732231E0
2.358346100E0,-2.009081841E-1,-3.188570499E0,-1.188225746E0
2.363168079E0,-1.973937154E-1,-3.125609875E0,-1.204998016E0
2.367990006E0,-1.655729115E-1,-3.038655758E0,-1.179907799E0
2.372811933E0,-1.689955592E-1,-2.938252449E0,-1.061604977E0
2.377633860E0,-1.506956220E-1,-2.827709675E0,-8.704438210E-1
2.382455839E0,-1.350317895E-1,-2.711476326E0,-6.231470108E-1
2.387277766E0,-1.310630441E-1,-2.592900276E0,-3.291406631E-1
2.392099693E0,-1.242392808E-1,-2.481212139E0,-2.292442322E-2
2.396921673E0,-1.347366720E-1,-2.358132362E0,2.777833939E-1
2.401743600E0,-1.579425037E-1,-2.233030558E0,5.899772644E-1
2.406565579E0,-1.919193715E-1,-2.137894154E0,8.613166809E-1
2.411387506E0,-2.394516766E-1,-2.028362989E0,1.093297005E0
2.416209433E0,-2.822083831E-1,-1.943702936E0,1.281349182E0
2.421031412E0,-3.280534148E-1,-1.865893364E0,1.428055763E0
2.425853339E0,-3.871625066E-1,-1.826043606E0,1.522839546E0
2.430675266E0,-4.255531430E-1,-1.779887915E0,1.561013222E0
2.435497246E0,-4.413572550E-1,-1.753890991E0,1.543896675E0
2.440319173E0,-4.563352466E-1,-1.706378460E0,1.463216782E0
2.445141100E0,-4.490031600E-1,-1.697329760E0,1.364467621E0
2.449963079E0,-4.514405131E-1,-1.680384398E0,1.216661453E0
2.454785006E0,-4.284265637E-1,-1.646309257E0,1.062949181E0
2.459606933E0,-4.151831269E-1,-1.627617359E0,9.284858704E-1
2.464428912E0,-3.857990503E-1,-1.579143405E0,8.061923981E-1
2.469250839E0,-3.641774058E-1,-1.540753603E0,7.213506699E-1
2.474072766E0,-3.396679759E-1,-1.483919024E0,6.860179901E-1
2.478894746E0,-3.347408175E-1,-1.424541950E0,7.278642654E-1
2.483716673E0,-3.395436406E-1,-1.342531323E0,8.315248489E-1
2.488538600E0,-3.391425014E-1,-1.269316077E0,1.018756866E0
2.493360579E0,-3.341571093E-1,-1.188311338E0,1.252752304E0
2.498182506E0,-3.284102678E-1,-1.093910217E0,1.536248207E0
2.503004433E0,-3.255974650E-1,-1.013970733E0,1.874352455E0
2.507826412E0,-3.123167753E-1,-9.487836361E-1,2.237522125E0
2.512648339E0,-2.977536619E-1,-8.509462476E-1,2.597430229E0
2.517470266E0,-2.679488361E-1,-7.650887966E-1,2.900673866E0
2.522292246E0,-2.377202809E-1,-6.952781081E-1,3.186998367E0
2.527114173E0,-1.940592378E-1,-6.348375678E-1,3.447019577E0
2.531936100E0,-1.538963616E-1,-5.853286386E-1,3.640209198E0
2.536758079E0,-9.958930314E-2,-5.055039525E-1,3.785713196E0
2.541580006E0,-5.287858844E-2,-4.412998259E-1,3.855972290E0
2.546401933E0,1.146227121E-3,-3.788414001E-1,3.854441643E0
2.551223912E0,4.603721201E-2,-3.232563138E-1,3.800049782E0
2.556045839E0,9.871484339E-2,-2.308821678E-1,3.684182167E0
2.560867766E0,1.158056259E-1,-1.523225307E-1,3.506601334E0
2.565689746E0,1.266407669E-1,-4.843485355E-2,3.305314064E0
2.570511673E0,1.457452476E-1,4.462051392E-2,3.087245941E0
2.575333600E0,1.551859677E-1,1.516783237E-1,2.877262115E0
2.580155579E0,1.762410700E-1,2.450634241E-1,2.687108994E0
2.584977506E0,1.570286900E-1,3.722749949E-1,2.536894798E0
2.589799433E0,1.460417807E-1,4.924803972E-1,2.462266922E0
2.594621412E0,1.567002386E-1,6.151046753E-1,2.445115089E0
2.599443339E0,1.498755962E-1,7.124537230E-1,2.497212410E0
2.604265266E0,1.353921741E-1,8.190114498E-1,2.631518364E0
2.609087246E0,1.491369754E-1,9.178552628E-1,2.844246864E0
2.613909173E0,1.252453327E-1,1.014758825E0,3.116065979E0
2.618731100E0,1.376391649E-1,1.095225096E0,3.447957993E0
2.623553079E0,1.106489897E-1,1.186623812E0,3.805044174E0
2.628375006E0,8.571642637E-2,1.275534630E0,4.171518326E0
2.633196933E0,6.103000045E-2,1.353621244E0,4.529223442E0
2.638018912E0,1.941317320E-2,1.445844173E0,4.819336891E0
2.642840839E0,-8.792817593E-3,1.552165747E0,5.072664261E0
2.647662766E0,-3.955012560E-2,1.661937118E0,5.225616455E0
2.652484746E0,-6.478548050E-2,1.763217926E0,5.288697243E0
2.657306673E0,-7.642054558E-2,1.877781630E0,5.249757767E0
2.662128600E0,-9.814953804E-2,2.018890858E0,5.100259781E0
2.666950579E0,-8.903944492E-2,2.158082008E0,4.869946480E0
2.671772506E0,-6.994915009E-2,2.304021597E0,4.555156708E0
2.676594433E0,-5.441474915E-2,2.434357405E0,4.206051826E0
2.681416412E0,-2.451837063E-2,2.561299801E0,3.824982643E0
2.686238339E0,1.262259483E-2,2.678077221E0,3.429933548E0
2.691060318E0,4.524934292E-2,2.800481319E0,3.066339493E0
2.695882246E0,6.426262856E-2,2.907273054E0,2.761719704E0
2.700704173E0,9.153938293E-2,2.979693890E0,2.504194260E0
2.705526152E0,9.905493259E-2,3.080128193E0,2.287902832E0
2.710348079E0,9.929716587E-2,3.178973436E0,2.133316994E0
2.715170006E0,1.049638987E-1,3.268027306E0,2.056077003E0
2.719991933E0,1.085056067E-1,3.327212334E0,2.034823418E0
2.724813912E0,1.106941104E-1,3.402229548E0,2.069747925E0
2.729635839E0,9.841978550E-2,3.470555782E0,2.134784698E0
2.734457818E0,1.061632633E-1,3.541992188E0,2.207476616E0
2.739279746E0,1.159999371E-1,3.619159460E0,2.290478706E0
2.744101673E0,1.316931844E-1,3.682031393E0,2.358975410E0
2.748923652E0,1.545597613E-1,3.738015175E0,2.388127327E0
2.753745579E0,1.848506927E-1,3.806509495E0,2.363879204E0
2.758567506E0,2.263027728E-1,3.886543274E0,2.267358780E0
2.763389485E0,2.670795619E-1,3.955701351E0,2.110770226E0
2.768211412E0,2.869015038E-1,4.020107269E0,1.885880470E0
2.773033339E0,3.165354729E-1,4.075320721E0,1.619159698E0
2.777855318E0,3.651791215E-1,4.133539200E0,1.280851364E0
2.782677246E0,4.047839940E-1,4.176962376E0,9.176321030E-1
2.787499173E0,4.285609424E-1,4.232022762E0,5.414657593E-1
2.792321152E0,4.415755868E-1,4.273793697E0,1.906023026E-1
2.797143079E0,4.581893086E-1,4.314358711E0,-1.469392776E-1
2.801965006E0,4.664610028E-1,4.339546204E0,-4.532270432E-1
2.806786985E0,4.972515106E-1,4.378042698E0,-7.199573517E-1
2.811608912E0,5.169064403E-1,4.427565575E0,-9.399614334E-1
2.816430839E0,5.047301650E-1,4.436750412E0,-1.110890388E0
2.821252818E0,5.070269704E-1,4.476249695E0,-1.226752281E0
2.826074746E0,5.173333883E-1,4.495881081E0,-1.289951324E0
2.830896673E0,5.279678106E-1,4.522043705E0,-1.300460815E0
2.835718652E0,5.503321886E-1,4.565497398E0,-1.266642570E0
2.840540579E0,5.598890185E-1,4.598776817E0,-1.165786743E0
2.845362506E0,5.630829334E-1,4.626695633E0,-1.028981209E0
2.850184485E0,5.591905713E-1,4.661292553E0,-8.633556366E-1
2.855006412E0,5.629078746E-1,4.683461189E0,-6.760730743E-1
2.859828339E0,5.433737040E-1,4.730242252E0,-4.779129028E-1
2.864650318E0,5.330599546E-1,4.762177944E0,-2.772645950E-1
2.869472246E0,5.237597227E-1,4.780391693E0,-9.691715240E-2
2.874294173E0,5.156959891E-1,4.787219524E0,4.514503479E-2
2.879116152E0,4.923002124E-1,4.802906990E0,1.787014008E-1
2.883938079E0,4.991788864E-1,4.807079792E0,2.618112564E-1
2.888760006E0,4.744991064E-1,4.813853264E0,3.062448502E-1
2.893581985E0,4.772073030E-1,4.813578129E0,2.879791260E-1
2.898403912E0,4.768518209E-1,4.800075531E0,2.450971603E-1
2.903225839E0,4.823742509E-1,4.799489975E0,1.714353561E-1
2.908047818E0,4.695499539E-1,4.796102047E0,8.237075806E-2
2.912869746E0,4.656029344E-1,4.789680481E0,-1.274204254E-2
2.917691673E0,4.858168364E-1,4.769374847E0,-1.068773270E-1
2.922513652E0,4.918653369E-1,4.767252922E0,-1.703386307E-1
2.927335579E0,4.896304607E-1,4.773577690E0,-2.009277344E-1
2.932157506E0,4.971855283E-1,4.757092476E0,-2.095546722E-1
2.936979485E0,4.941918850E-1,4.746313095E0,-1.748666763E-1
2.941801412E0,5.012018085E-1,4.757777214E0,-1.220817566E-1
2.946623391E0,4.740802050E-1,4.754238129E0,-3.338813782E-2
2.951445318E0,4.465819001E-1,4.743923187E0,1.150159836E-1
2.956267246E0,4.334139824E-1,4.720668316E0,2.847862244E-1
2.961089225E0,4.145802259E-1,4.712967396E0,4.973649979E-1
2.965911152E0,3.940895200E-1,4.681147099E0,7.347364426E-1
2.970733079E0,3.760276437E-1,4.654909134E0,9.789428711E-1
2.975555058E0,3.657605052E-1,4.632832050E0,1.237134933E0
2.980376985E0,3.293648362E-1,4.607416153E0,1.469808578E0
2.985198912E0,3.201901913E-1,4.566583633E0,1.699732780E0
2.990020891E0,3.150344491E-1,4.505379677E0,1.885084152E0
2.994842818E0,3.076388836E-1,4.464198589E0,2.034239769E0
2.999664746E0,3.024579883E-1,4.430839539E0,2.140021324E0
3.004486725E0,3.122795224E-1,4.400359154E0,2.226334572E0
3.009308652E0,3.177490830E-1,4.357017994E0,2.258473396E0
3.014130579E0,3.362748027E-1,4.312650681E0,2.253148079E0
3.018952558E0,3.507520556E-1,4.280237198E0,2.204329491E0
3.023774485E0,3.631109297E-1,4.242921352E0,2.145421982E0
3.028596412E0,3.787546456E-1,4.198228836E0,2.054829597E0
3.033418391E0,3.755200505E-1,4.143652439E0,1.951577187E0
3.038240318E0,3.825862408E-1,4.096998215E0,1.865410805E0
3.043062246E0,3.883695006E-1,4.066576004E0,1.779509544E0
3.047884225E0,4.039692283E-1,4.033078194E0,1.728368759E0
3.052706152E0,4.044765234E-1,3.976181507E0,1.714292526E0
3.057528079E0,4.152824879E-1,3.921986341E0,1.731115341E0
3.062350058E0,4.173367321E-1,3.841736794E0,1.760845184E0
3.067171985E0,4.202951789E-1,3.759226799E0,1.840459824E0
3.071993912E0,4.397023916E-1,3.686212540E0,1.956702232E0
3.076815891E0,4.527334273E-1,3.598625183E0,2.107130051E0
3.081637818E0,4.616041481E-1,3.504706860E0,2.273826599E0
3.086459746E0,4.636830091E-1,3.395902157E0,2.459189415E0
3.091281725E0,4.680835307E-1,3.288861275E0,2.639423370E0
3.096103652E0,4.695417285E-1,3.178627968E0,2.815821648E0
3.100925579E0,4.614647329E-1,3.072241306E0,2.972994804E0
3.105747558E0,4.479347169E-1,2.957629681E0,3.130225182E0
3.110569485E0,4.411958456E-1,2.840741873E0,3.257830620E0
3.115391412E0,4.165118039E-1,2.723855972E0,3.358379364E0
3.120213391E0,4.087237716E-1,2.615365267E0,3.438087463E0
3.125035318E0,3.797193170E-1,2.524800301E0,3.472048759E0
3.129857298E0,3.535152376E-1,2.413909912E0,3.485561371E0
3.134679225E0,3.541266322E-1,2.305606842E0,3.487223625E0
3.139501152E0,3.111542463E-1,2.208266973E0,3.466409683E0
3.144323131E0,2.810205221E-1,2.089698792E0,3.413723946E0
3.149145058E0,2.519050837E-1,1.990734220E0,3.362812042E0
3.153966985E0,2.168901563E-1,1.876876593E0,3.295896530E0
3.158788964E0,1.906787157E-1,1.733990669E0,3.226288795E0
3.163610891E0,1.606019735E-1,1.619664311E0,3.142214775E0
3.168432818E0,1.212377548E-1,1.512628913E0,3.072567940E0
3.173254798E0,8.042621613E-2,1.389262676E0,3.006793976E0
3.178076725E0,4.024100304E-2,1.274903536E0,2.931975365E0
3.182898652E0,-6.750226021E-3,1.178276777E0,2.869921684E0
3.187720631E0,-2.954292297E-2,1.060212851E0,2.818510056E0
3.192542558E0,-9.617877007E-2,9.509851933E-1,2.758948326E0
3.197364485E0,-1.286374331E-1,8.497807980E-1,2.723857880E0
3.202186464E0,-1.754919887E-1,7.378909588E-1,2.677729607E0
3.207008391E0,-2.038196921E-1,6.324975491E-1,2.622141838E0
3.211830318E0,-2.415143251E-1,5.507014990E-1,2.561038017E0
3.216652298E0,-2.636334300E-1,4.475713968E-1,2.505515099E0
3.221474225E0,-2.798832059E-1,3.810690045E-1,2.445115089E0
3.226296152E0,-3.008856773E-1,2.989015579E-1,2.372900009E0
3.231118131E0,-3.014068604E-1,2.566713691E-1,2.291463852E0
3.235940058E0,-2.716298401E-1,1.986353993E-1,2.210480690E0
3.240761985E0,-2.650594711E-1,1.479822993E-1,2.104887009E0
3.245583964E0,-2.503561080E-1,9.211701155E-2,1.997371674E0
3.250405891E0,-2.285043299E-1,5.782963336E-2,1.856750488E0
3.255227818E0,-1.945617795E-1,1.568674296E-2,1.725884438E0
3.260049798E0,-1.544231623E-1,-3.758547828E-2,1.577033997E0
3.264871725E0,-1.070339456E-1,-6.683903933E-2,1.423077583E0
3.269693652E0,-7.783977687E-2,-1.123951375E-1,1.250564575E0
3.274515631E0,-3.980359063E-2,-1.548771858E-1,1.085483551E0
3.279337558E0,-1.149342954E-2,-1.819610000E-1,9.334669113E-1
3.284159485E0,2.522733808E-2,-2.257412672E-1,7.726917267E-1
3.288981464E0,5.014687777E-2,-2.704567313E-1,6.184186935E-1
3.293803391E0,7.156911492E-2,-3.039836884E-1,4.990568161E-1
3.298625318E0,9.874719381E-2,-3.584992886E-1,4.131498337E-1
3.303447298E0,9.286817163E-2,-4.122357965E-1,3.449153900E-1
3.308269225E0,1.024114862E-1,-4.484392405E-1,3.156757355E-1
3.313091204E0,1.110445559E-1,-4.957146645E-1,3.085117340E-1
3.317913131E0,1.047630310E-1,-5.515911579E-1,3.459692001E-1
3.322735058E0,8.974349499E-2,-5.886225700E-1,4.135484695E-1
3.327557037E0,7.683540881E-2,-6.426213980E-1,5.218448639E-1
3.332378964E0,6.363708526E-2,-6.884199381E-1,6.706762314E-1
3.337200891E0,2.739374340E-2,-7.297368050E-1,8.144865036E-1
3.342022871E0,-4.535496235E-3,-7.808966637E-1,9.865846634E-1
3.346844798E0,-4.185059667E-2,-8.372424841E-1,1.155737877E0
3.351666725E0,-9.661221504E-2,-9.001021385E-1,1.330158234E0
3.356488704E0,-1.378902495E-1,-9.671835899E-1,1.480995178E0
3.361310631E0,-2.026777267E-1,-1.056653738E0,1.621275902E0
3.366132558E0,-2.300181091E-1,-1.138806343E0,1.746071815E0
3.370954537E0,-2.830004096E-1,-1.227179766E0,1.837385178E0
3.375776464E0,-3.135010004E-1,-1.327933073E0,1.907070160E0
3.380598391E0,-3.448238373E-1,-1.443788409E0,1.940762520E0
3.385420371E0,-3.822529316E-1,-1.559525490E0,1.950420380E0
3.390242298E0,-4.020526409E-1,-1.646833777E0,1.939686775E0
3.395064225E0,-4.246934056E-1,-1.744306803E0,1.914605141E0
3.399886204E0,-4.393097758E-1,-1.858251095E0,1.856177330E0
3.404708131E0,-4.444538951E-1,-1.969887972E0,1.807600975E0
3.409530058E0,-4.624012113E-1,-2.082009315E0,1.789351463E0
3.414352037E0,-4.711289108E-1,-2.204501629E0,1.769320488E0
3.419173964E0,-4.890936017E-1,-2.301779509E0,1.770398140E0
3.423995891E0,-4.903761744E-1,-2.396933556E0,1.807119370E0
3.428817871E0,-4.980704188E-1,-2.508196354E0,1.850972176E0
3.433639798E0,-5.063968897E-1,-2.601239920E0,1.936811447E0
3.438461777E0,-5.131335855E-1,-2.688363552E0,2.038489342E0
3.443283704E0,-5.219420195E-1,-2.791345596E0,2.145392418E0
3.448105631E0,-5.185356736E-1,-2.891372919E0,2.257662773E0
3.452927610E0,-5.173095465E-1,-2.986426830E0,2.356309891E0
3.457749537E0,-5.146198273E-1,-3.087462664E0,2.448571205E0
3.462571464E0,-4.913589358E-1,-3.184026957E0,2.529733658E0
3.467393443E0,-4.798976779E-1,-3.277614832E0,2.550851822E0
3.472215371E0,-4.470716119E-1,-3.380369663E0,2.539472580E0
3.477037298E0,-4.229708314E-1,-3.461394310E0,2.489624977E0
3.481859225E0,-4.128799438E-1,-3.552000046E0,2.395366669E0
3.486681204E0,-3.899057508E-1,-3.645136833E0,2.266277313E0
3.491503131E0,-3.547877073E-1,-3.709813118E0,2.105940819E0
3.496325110E0,-3.730164170E-1,-3.793959618E0,1.931111336E0
3.501147037E0,-3.584674001E-1,-3.855728865E0,1.747764587E0
3.505968964E0,-3.374552727E-1,-3.920339346E0,1.546393394E0
3.510790943E0,-3.339402080E-1,-3.986603022E0,1.365283966E0
3.515612871E0,-3.339726627E-1,-4.063986778E0,1.196086884E0
3.520434798E0,-3.306904435E-1,-4.095204353E0,1.058008194E0
3.525256777E0,-3.018046916E-1,-4.155480862E0,9.558496475E-1
3.530078704E0,-2.991949320E-1,-4.211371899E0,8.753623962E-1
3.534900631E0,-2.995600104E-1,-4.280694008E0,8.452854156E-1
3.539722610E0,-2.736319602E-1,-4.337052345E0,8.572912216E-1
3.544544537E0,-2.842532098E-1,-4.396036625E0,8.839960098E-1
3.549366464E0,-2.735975981E-1,-4.462286949E0,9.505643845E-1
3.554188443E0,-2.663373947E-1,-4.540490150E0,1.045090675E0
3.559010371E0,-2.835979462E-1,-4.580340385E0,1.131772041E0
3.563832298E0,-2.772440910E-1,-4.659411430E0,1.251294136E0
3.568654277E0,-3.019400835E-1,-4.716567039E0,1.352262497E0
3.573476204E0,-3.107438087E-1,-4.766023636E0,1.446656227E0
3.578298131E0,-3.200056255E-1,-4.806393623E0,1.508160591E0
3.583120110E0,-3.114793897E-1,-4.836333275E0,1.527217865E0
3.587942037E0,-3.373072743E-1,-4.898546219E0,1.510915756E0
3.592764016E0,-3.574067056E-1,-4.922363281E0,1.469989777E0
3.597585943E0,-3.664455414E-1,-4.969674110E0,1.372059822E0
3.602407871E0,-3.684816360E-1,-4.993536949E0,1.242113113E0
3.607229798E0,-3.852817118E-1,-5.029594898E0,1.095585823E0
3.612051777E0,-3.824466467E-1,-5.062033176E0,9.299411774E-1
3.616873704E0,-3.983943462E-1,-5.075072289E0,7.725229263E-1
3.621695683E0,-3.925164938E-1,-5.085222244E0,6.040525436E-1
3.626517610E0,-4.005867839E-1,-5.102983475E0,4.434967041E-1
3.631339537E0,-4.105870128E-1,-5.117358208E0,2.942838669E-1
3.636161516E0,-4.126919210E-1,-5.128135681E0,1.574563980E-1
3.640983443E0,-4.115164280E-1,-5.131472588E0,5.433750153E-2
3.645805371E0,-4.198927581E-1,-5.158212185E0,-3.318881989E-2
3.650627350E0,-4.398631155E-1,-5.161531448E0,-9.093475342E-2
3.655449277E0,-4.519199133E-1,-5.154385567E0,-1.394052505E-1
3.660271204E0,-4.472378194E-1,-5.152109146E0,-1.620388031E-1
3.665093183E0,-4.493183196E-1,-5.138899326E0,-1.710176468E-1
3.669915110E0,-4.635749161E-1,-5.111000061E0,-1.330633163E-1
3.674737037E0,-4.883094728E-1,-5.077763081E0,-1.069860458E-1
3.679559016E0,-4.930103123E-1,-5.036571980E0,-7.985115051E-2
3.684380943E0,-4.854853153E-1,-5.011177063E0,-6.140232086E-2
3.689202871E0,-4.746991098E-1,-4.951115131E0,-6.743812561E-2
3.694024850E0,-4.778826535E-1,-4.914866447E0,-8.616590500E-2
3.698846777E0,-4.550985694E-1,-4.880674362E0,-1.178488731E-1
3.703668704E0,-4.403739572E-1,-4.842464447E0,-1.578931808E-1
3.708490683E0,-4.092909098E-1,-4.797719002E0,-2.268385887E-1
3.713312610E0,-4.055024981E-1,-4.757078171E0,-3.248853683E-1
3.718134589E0,-3.926582634E-1,-4.739611626E0,-4.414134026E-1
3.722956516E0,-3.643708825E-1,-4.698595524E0,-5.539083481E-1
3.727778443E0,-3.455064893E-1,-4.672243595E0,-6.912183762E-1
3.732600423E0,-3.285564184E-1,-4.660584927E0,-8.223195076E-1
3.737422350E0,-3.084684312E-1,-4.636014462E0,-9.330644608E-1
3.742244277E0,-2.851146758E-1,-4.609245300E0,-1.041523933E0
3.747066256E0,-2.619815469E-1,-4.583845139E0,-1.134626389E0
3.751888183E0,-2.652201653E-1,-4.558551788E0,-1.222040176E0
3.756710110E0,-2.624851465E-1,-4.524991989E0,-1.271525383E0
3.761532089E0,-2.453957200E-1,-4.490296364E0,-1.295102596E0
3.766354016E0,-2.331089973E-1,-4.466265678E0,-1.313194275E0
3.771175943E0,-2.184912562E-1,-4.425406933E0,-1.305422306E0
3.775997923E0,-2.088428140E-1,-4.371149540E0,-1.261109829E0
3.780819850E0,-1.875854284E-1,-4.304657459E0,-1.193362236E0
3.785641777E0,-1.872127354E-1,-4.262849808E0,-1.128456593E0
3.790463756E0,-1.756805182E-1,-4.238411903E0,-1.034045696E0
3.795285683E0,-1.916378438E-1,-4.166713238E0,-9.446926117E-1
3.800107610E0,-1.815611124E-1,-4.100296021E0,-8.530874252E-1
3.804929589E0,-1.914164871E-1,-4.072529316E0,-7.483186722E-1
3.809751516E0,-1.941839755E-1,-4.034302235E0,-6.601009369E-1
3.814573496E0,-1.927316040E-1,-4.005908966E0,-5.607194901E-1
3.819395423E0,-2.236498445E-1,-3.989727497E0,-4.881944656E-1
3.824217350E0,-2.361045778E-1,-3.947470665E0,-3.956899643E-1
3.829039329E0,-2.438912094E-1,-3.927046776E0,-3.211917877E-1
3.833861256E0,-2.477490008E-1,-3.909348011E0,-2.560768127E-1
3.838683183E0,-2.483182251E-1,-3.890883923E0,-2.024631500E-1
3.843505110E0,-2.617799044E-1,-3.878916740E0,-1.409730911E-1
3.848327089E0,-2.638024688E-1,-3.860431433E0,-9.286975861E-2
3.853149016E0,-2.788054347E-1,-3.836734295E0,-4.117584229E-2
3.857970996E0,-2.798409760E-1,-3.824747086E0,2.871036530E-2
3.862792923E0,-2.878120542E-1,-3.795915842E0,1.205768585E-1
3.867614850E0,-2.912175059E-1,-3.777997494E0,2.000274658E-1
3.872436829E0,-2.880839109E-1,-3.750845432E0,2.936096191E-1
3.877258756E0,-2.930436432E-1,-3.713503838E0,3.884201050E-1
3.882080683E0,-2.992409468E-1,-3.675825357E0,5.277547836E-1
3.886902662E0,-3.032176793E-1,-3.621303082E0,6.807432175E-1
3.891724589E0,-2.942547500E-1,-3.605318308E0,8.154354095E-1
3.896546516E0,-3.033467531E-1,-3.548023224E0,9.595966339E-1
3.901368496E0,-3.028722405E-1,-3.489251614E0,1.127846718E0
3.906190423E0,-3.009196520E-1,-3.444863796E0,1.303694725E0
3.911012350E0,-2.923037410E-1,-3.400978327E0,1.464739799E0
3.915834329E0,-2.812453508E-1,-3.342375517E0,1.642298698E0
3.920656256E0,-2.791328132E-1,-3.287417412E0,1.810305595E0
3.925478183E0,-2.768337131E-1,-3.228204489E0,1.961829185E0
3.930300162E0,-2.592141926E-1,-3.155642509E0,2.101845741E0
3.935122089E0,-2.419940680E-1,-3.089339018E0,2.229324341E0
3.939944016E0,-2.231801450E-1,-3.040447712E0,2.353913307E0
3.944765996E0,-2.113616168E-1,-2.974737644E0,2.451764107E0
3.949587923E0,-1.911768615E-1,-2.896287918E0,2.539646149E0
3.954409902E0,-1.915356666E-1,-2.810276270E0,2.593615532E0
3.959231829E0,-1.732231975E-1,-2.724357605E0,2.654271126E0
3.964053756E0,-1.665605754E-1,-2.643638849E0,2.693986893E0
3.968875735E0,-1.455479860E-1,-2.558923721E0,2.734147072E0
3.973697662E0,-1.299299598E-1,-2.475310087E0,2.750679016E0
3.978519589E0,-1.047611833E-1,-2.378778934E0,2.772109032E0
3.983341568E0,-9.111099690E-2,-2.261240482E0,2.804214478E0
3.988163496E0,-8.153416216E-2,-2.169682503E0,2.827684402E0
3.992985423E0,-9.133632481E-2,-2.074335337E0,2.855484962E0
3.997807402E0,-9.055538476E-2,-1.971808314E0,2.877880096E0
4.002629329E0,-8.995763212E-2,-1.863565326E0,2.931765556E0
4.007451256E0,-6.959342957E-2,-1.741328001E0,3.008593559E0
4.012273235E0,-6.429074705E-2,-1.628021836E0,3.096261024E0
4.017095162E0,-6.982674450E-2,-1.521219492E0,3.169539452E0
4.021917141E0,-7.478727400E-2,-1.397153378E0,3.260608673E0
4.026739068E0,-7.274353504E-2,-1.304904819E0,3.372928619E0
4.031560996E0,-8.111454546E-2,-1.191819787E0,3.476501465E0
4.036382923E0,-8.529652655E-2,-1.080617547E0,3.581992149E0
4.041204902E0,-8.263780177E-2,-9.736735821E-1,3.679731369E0
4.046026829E0,-9.215861559E-2,-8.600586653E-1,3.773200989E0
4.050848808E0,-1.064025760E-1,-7.493277788E-1,3.864667892E0
4.055670735E0,-1.264649928E-1,-6.340349317E-1,3.932497025E0
4.060492662E0,-1.449113190E-1,-5.128625035E-1,3.982550621E0
4.065314641E0,-1.532441378E-1,-3.939852715E-1,4.029037476E0
4.070136568E0,-1.715211272E-1,-2.639825344E-1,4.032384872E0
4.074958496E0,-1.981540322E-1,-1.477501988E-1,4.006838799E0
4.079780475E0,-2.004520893E-1,-1.497960091E-2,3.953505516E0
4.084602402E0,-2.113216519E-1,1.023271680E-1,3.885445595E0
4.089424329E0,-2.252632380E-1,2.379755378E-1,3.789442062E0
4.094246308E0,-2.413928509E-1,3.720595837E-1,3.678619385E0
4.099068235E0,-2.372022867E-1,4.786479473E-1,3.535037041E0
4.103890162E0,-2.343386412E-1,6.047629714E-1,3.396972656E0
4.108712141E0,-2.254618406E-1,7.531167865E-1,3.239356041E0
4.113534068E0,-2.128255963E-1,8.703841567E-1,3.088569641E0
4.118355996E0,-2.294890881E-1,9.916156530E-1,2.927959442E0
4.123177975E0,-2.247666717E-1,1.107620478E0,2.764818192E0
4.127999902E0,-2.099434733E-1,1.238001466E0,2.625580788E0
4.132821881E0,-2.274314761E-1,1.352036238E0,2.478085518E0
4.137643808E0,-2.011023164E-1,1.458501101E0,2.347583771E0
4.142465735E0,-1.862779558E-1,1.580429316E0,2.222241402E0
4.147287714E0,-1.629832387E-1,1.707525373E0,2.104587555E0
4.152109641E0,-1.540809870E-1,1.831751347E0,1.980404854E0
4.156931568E0,-1.346090734E-1,1.953429461E0,1.837858200E0
4.161753548E0,-1.107931137E-1,2.063337088E0,1.712919235E0
4.166575475E0,-8.285170794E-2,2.161763430E0,1.562623024E0
4.171397402E0,-6.903015077E-2,2.265795469E0,1.412168503E0
4.176219381E0,-3.375126421E-2,2.373192549E0,1.244871140E0
4.181041308E0,-1.932311058E-2,2.474674940E0,1.084705353E0
4.185863235E0,3.568045795E-3,2.556077719E0,9.101924896E-1
4.190685214E0,2.228449285E-2,2.635457754E0,7.249746323E-1
4.195507141E0,4.321969301E-2,2.708142281E0,5.398664474E-1
4.200329068E0,6.421457231E-2,2.786177635E0,3.549232483E-1
4.205151048E0,7.461953163E-2,2.837309837E0,1.953039169E-1
4.209972975E0,8.401699364E-2,2.905796289E0,5.866336823E-2
4.214794902E0,8.755299449E-2,2.952151299E0,-7.644271851E-2
4.219616881E0,7.900252938E-2,3.020622730E0,-1.728630066E-1
4.224438808E0,7.953212410E-2,3.074029922E0,-2.592172623E-1
4.229260787E0,8.994316310E-2,3.112426043E0,-3.210363388E-1
4.234082714E0,9.777273238E-2,3.179810047E0,-3.379392624E-1
4.238904641E0,9.060197324E-2,3.223484516E0,-3.325529099E-1
4.243726621E0,8.081783354E-2,3.278083801E0,-2.952070236E-1
4.248548548E0,6.070026755E-2,3.303853035E0,-2.234773636E-1
4.253370475E0,4.263603687E-2,3.376070023E0,-1.328134537E-1
4.258192454E0,3.659546375E-2,3.419089317E0,-1.721477509E-2
4.263014381E0,1.907819510E-2,3.460227966E0,8.749294281E-2
4.267836308E0,1.203906536E-2,3.508916378E0,2.232103348E-1
4.272658287E0,-8.009672165E-3,3.538489103E0,3.432683945E-1
4.277480214E0,-3.224274516E-2,3.565423489E0,4.739484787E-1
4.282302141E0,-4.464989901E-2,3.620488644E0,6.032352448E-1
4.287124121E0,-4.710561037E-2,3.645940065E0,7.083368301E-1
4.291946048E0,-7.363528013E-2,3.684501410E0,8.118848801E-1
4.296768027E0,-8.527427912E-2,3.708341599E0,8.815002441E-1
4.301589954E0,-7.997083664E-2,3.736191273E0,9.517250061E-1
4.306411881E0,-9.039109945E-2,3.760577679E0,1.022425652E0
4.311233860E0,-1.047989130E-1,3.806235552E0,1.062368393E0
4.316055787E0,-1.004472971E-1,3.834527969E0,1.091740608E0
4.320877714E0,-1.012456417E-1,3.861886501E0,1.110401154E0
4.325699693E0,-1.071903706E-1,3.907100916E0,1.125357628E0
4.330521621E0,-9.061062336E-2,3.941136122E0,1.167506218E0
4.335343548E0,-9.666150808E-2,3.976819038E0,1.205567360E0
4.340165527E0,-9.394049644E-2,4.013898849E0,1.274044037E0
4.344987454E0,-9.646344185E-2,4.053279400E0,1.332088470E0
4.349809381E0,-9.789991379E-2,4.087561607E0,1.408232689E0
4.354631360E0,-9.184908867E-2,4.134369850E0,1.498644829E0
4.359453287E0,-1.041363776E-1,4.165955067E0,1.593551636E0
4.364275214E0,-1.007540822E-1,4.197698116E0,1.699943542E0
4.369097193E0,-1.087025404E-1,4.232893944E0,1.819933891E0
4.373919121E0,-1.071793139E-1,4.270114899E0,1.949670792E0
4.378741048E0,-1.051696837E-1,4.299648285E0,2.073399544E0
4.383563027E0,-1.200685203E-1,4.317756653E0,2.190891266E0
4.388384954E0,-1.071203351E-1,4.355310440E0,2.295886040E0
4.393206933E0,-1.125007421E-1,4.384661674E0,2.376193047E0
4.398028860E0,-1.022333801E-1,4.408108234E0,2.451912880E0
4.402850787E0,-1.021495908E-1,4.431495190E0,2.496490479E0
4.407672766E0,-9.272235632E-2,4.466697693E0,2.508531094E0
4.412494693E0,-1.046659946E-1,4.498124123E0,2.522511005E0
4.417316621E0,-9.705613554E-2,4.522130013E0,2.510714531E0
4.422138600E0,-1.019083709E-1,4.526741982E0,2.481339455E0
4.426960527E0,-9.028553963E-2,4.587306976E0,2.435472488E0
4.431782454E0,-1.002886593E-1,4.603304863E0,2.362168312E0
4.436604433E0,-8.157311380E-2,4.619048595E0,2.298402309E0
4.441426360E0,-8.311470598E-2,4.642873287E0,2.249995232E0
4.446248287E0,-7.743184268E-2,4.650913239E0,2.201330185E0
4.451070266E0,-8.121570945E-2,4.668261528E0,2.153510094E0
4.455892193E0,-8.007960767E-2,4.663856506E0,2.105291367E0
4.460714121E0,-8.009681851E-2,4.681912899E0,2.070960522E0
4.465536100E0,-7.776280493E-2,4.674597740E0,2.061230659E0
4.470358027E0,-6.850241125E-2,4.669420242E0,2.065320969E0
4.475180006E0,-5.960271508E-2,4.659148216E0,2.092749119E0
4.480001933E0,-6.915616244E-2,4.611537933E0,2.144738197E0
4.484823860E0,-7.699226588E-2,4.577950478E0,2.192592621E0
4.489645839E0,-7.268451154E-2,4.559514046E0,2.248309135E0
4.494467766E0,-7.199503481E-2,4.516751289E0,2.319128513E0
4.499289693E0,-5.853550881E-2,4.463986874E0,2.383600712E0
4.504111673E0,-6.249097735E-2,4.403556824E0,2.466906071E0
4.508933600E0,-7.229939103E-2,4.359366417E0,2.532112122E0
4.513755527E0,-7.039730251E-2,4.317034721E0,2.567424774E0
4.518577506E0,-6.916670501E-2,4.262215614E0,2.598126888E0
4.523399433E0,-6.786286831E-2,4.198583603E0,2.602929592E0
4.528221360E0,-8.841639757E-2,4.144037247E0,2.584388733E0
4.533043339E0,-9.060028195E-2,4.084339619E0,2.557120323E0
4.537865266E0,-1.096044183E-1,4.031482697E0,2.504592896E0
4.542687193E0,-1.123422086E-1,3.953312397E0,2.431861877E0
4.547509173E0,-1.231026947E-1,3.892945766E0,2.354696274E0
4.552331100E0,-1.172217727E-1,3.839757442E0,2.261408806E0
4.557153079E0,-1.284756362E-1,3.766355991E0,2.173757553E0
4.561975006E0,-1.524763703E-1,3.705229759E0,2.088426590E0
4.566796933E0,-1.512433290E-1,3.632554531E0,1.994874001E0
4.571618912E0,-1.703704894E-1,3.564135313E0,1.916122437E0
4.576440839E0,-1.766290069E-1,3.480972290E0,1.834453583E0
4.581262766E0,-1.940920055E-1,3.426341534E0,1.751349449E0
4.586084746E0,-2.145554423E-1,3.344272614E0,1.687394142E0
4.590906673E0,-2.331686616E-1,3.270884991E0,1.618941307E0
4.595728600E0,-2.320031226E-1,3.201617002E0,1.588073730E0
4.600550579E0,-2.455939651E-1,3.133173704E0,1.544840813E0
4.605372506E0,-2.546171546E-1,3.057461739E0,1.493102074E0
4.610194433E0,-2.696461082E-1,2.981973171E0,1.458214760E0
4.615016412E0,-2.699734867E-1,2.920203686E0,1.405768394E0
4.619838339E0,-2.898738682E-1,2.862888813E0,1.356317520E0
4.624660318E0,-2.822198868E-1,2.818769932E0,1.288575172E0
4.629482246E0,-2.943534851E-1,2.764320850E0,1.220681190E0
4.634304173E0,-2.825835049E-1,2.701107502E0,1.136066437E0
4.639126100E0,-2.917463779E-1,2.650981665E0,1.042036057E0
4.643948079E0,-2.686406970E-1,2.603642225E0,9.482927322E-1
4.648770006E0,-2.591296434E-1,2.557040930E0,8.536996841E-1
4.653591985E0,-2.482605278E-1,2.525869370E0,7.260217667E-1
4.658413912E0,-2.245861739E-1,2.487782955E0,5.963811874E-1
4.663235839E0,-1.994992495E-1,2.453935623E0,4.826889038E-1
4.668057818E0,-1.987308562E-1,2.404273510E0,3.681344986E-1
4.672879746E0,-1.774546802E-1,2.367876053E0,2.669992447E-1
4.677701673E0,-1.520194113E-1,2.313937426E0,1.564731598E-1
4.682523652E0,-1.196615919E-1,2.302460194E0,6.991863251E-2
4.687345579E0,-1.003700495E-1,2.258419037E0,-3.543853760E-3
4.692167558E0,-8.437184989E-2,2.214289665E0,-7.002735138E-2
4.696989485E0,-5.966644734E-2,2.179992676E0,-1.009502411E-1
4.701811412E0,-3.686628491E-2,2.141229868E0,-1.371173859E-1
4.706633391E0,-3.401927650E-2,2.100605011E0,-1.463584900E-1
4.711455318E0,-1.124264789E-3,2.069112301E0,-1.168489456E-1
4.716277246E0,-4.102881998E-3,2.032459021E0,-8.220195770E-2
4.721099225E0,1.291656494E-2,1.969226837E0,-2.459716797E-2
4.725921152E0,2.317589894E-2,1.924967766E0,4.868221283E-2
4.730743079E0,2.725486457E-2,1.867459059E0,1.446933746E-1
4.735565058E0,2.475678921E-2,1.826533556E0,2.465858459E-1
4.740386985E0,9.017184377E-3,1.777122736E0,3.721857071E-1
4.745208912E0,8.017182350E-3,1.722774386E0,4.902944565E-1
4.750030891E0,-5.327492952E-3,1.659862041E0,6.163549423E-1
4.754852818E0,-1.497554779E-2,1.582227468E0,7.359027863E-1
4.759674746E0,-3.376835585E-2,1.499363899E0,8.882627487E-1
4.764496725E0,-5.278015137E-2,1.421832323E0,1.033845901E0
4.769318652E0,-6.802007556E-2,1.356593966E0,1.182092667E0
4.774140579E0,-8.382326365E-2,1.267612576E0,1.308977127E0
4.778962558E0,-1.019816995E-1,1.171294689E0,1.449059486E0
4.783784485E0,-1.325636506E-1,1.063830376E0,1.592655182E0
4.788606464E0,-1.355410814E-1,9.712775350E-1,1.721724510E0
4.793428391E0,-1.459658146E-1,8.394304514E-1,1.848146439E0
4.798250318E0,-1.652153134E-1,7.397863865E-1,1.963494301E0
4.803072298E0,-1.863591075E-1,6.264269948E-1,2.099986076E0
4.807894225E0,-1.856455803E-1,5.074599385E-1,2.210957527E0
4.812716152E0,-2.011972666E-1,3.944726586E-1,2.341839790E0
4.817538131E0,-2.149143219E-1,2.774562538E-1,2.448408127E0
4.822360058E0,-2.217322588E-1,1.667765528E-1,2.557008743E0
4.827181985E0,-2.248412371E-1,4.534462094E-2,2.660518646E0
4.832003964E0,-2.190034389E-1,-9.674913436E-2,2.769753456E0
4.836825891E0,-2.061004639E-1,-2.120855898E-1,2.875214577E0
4.841647818E0,-2.117156684E-1,-3.441467881E-1,2.978178978E0
4.846469798E0,-1.993391812E-1,-4.705336094E-1,3.079920769E0
4.851291725E0,-2.028430402E-1,-5.761437416E-1,3.178131104E0
4.856113704E0,-1.879612207E-1,-7.342457771E-1,3.260939598E0
4.860935631E0,-1.635152400E-1,-8.637416363E-1,3.328434944E0
4.865757558E0,-1.454088092E-1,-9.985923767E-1,3.384289742E0
4.870579537E0,-1.340768635E-1,-1.143804193E0,3.420213699E0
4.875401464E0,-1.011928618E-1,-1.249457836E0,3.449438095E0
4.880223391E0,-8.319254220E-2,-1.374416828E0,3.454100609E0
4.885045371E0,-6.627391279E-2,-1.504548669E0,3.437879562E0
4.889867298E0,-3.792591393E-2,-1.628084540E0,3.417592049E0
4.894689225E0,-9.654387832E-3,-1.736840129E0,3.355074883E0
4.899511204E0,2.004152536E-2,-1.881162167E0,3.312601089E0
4.904333131E0,4.551154375E-2,-2.004878521E0,3.231678963E0
4.909155110E0,5.004176497E-2,-2.120028257E0,3.175792694E0
4.913977037E0,6.481415033E-2,-2.237507820E0,3.097236633E0
4.918798964E0,9.567467123E-2,-2.348964691E0,3.022464752E0
4.923620943E0,1.221093684E-1,-2.454285145E0,2.956381798E0
4.928442871E0,1.307064593E-1,-2.567837238E0,2.895546913E0
4.933264798E0,1.449939311E-1,-2.670394659E0,2.840109825E0
4.938086777E0,1.561645716E-1,-2.789369106E0,2.800975800E0
4.942908704E0,1.649147719E-1,-2.900719404E0,2.784254074E0
4.947730631E0,1.969170719E-1,-3.015017033E0,2.773327827E0
4.952552610E0,2.060608715E-1,-3.113031864E0,2.752799988E0
4.957374537E0,2.084570825E-1,-3.223269463E0,2.740732193E0
4.962196464E0,2.034164667E-1,-3.320346832E0,2.743182182E0
4.967018443E0,1.901591420E-1,-3.442273617E0,2.742279053E0
4.971840371E0,1.894697249E-1,-3.548132896E0,2.723750114E0
4.976662350E0,1.995139718E-1,-3.648360968E0,2.694806099E0
4.981484277E0,1.956249774E-1,-3.733077049E0,2.654256821E0
4.986306204E0,1.844075918E-1,-3.807949066E0,2.598514557E0
4.991128183E0,1.700704694E-1,-3.914371014E0,2.533496857E0
4.995950110E0,1.748348475E-1,-3.975498438E0,2.453179359E0
5.000772037E0,1.612444520E-1,-4.056743622E0,2.351517677E0
5.005594016E0,1.731727123E-1,-4.137320042E0,2.231993675E0
5.010415943E0,1.578311324E-1,-4.190594196E0,2.118419647E0
5.015237871E0,1.485464573E-1,-4.257941723E0,1.980746269E0
5.020059850E0,1.476808786E-1,-4.334235191E0,1.840385437E0
5.024881777E0,1.408928633E-1,-4.365248203E0,1.717471123E0
5.029703756E0,1.498194933E-1,-4.417597294E0,1.587924004E0
5.034525683E0,1.483632326E-1,-4.477795124E0,1.443240166E0
5.039347610E0,1.344291568E-1,-4.497612953E0,1.293982506E0
5.044169589E0,1.345848441E-1,-4.526978493E0,1.174628258E0
5.048991516E0,1.373092532E-1,-4.567956448E0,1.045527458E0
5.053813443E0,1.371387243E-1,-4.579576969E0,9.351625443E-1
5.058635423E0,1.415252090E-1,-4.602175236E0,8.408708572E-1
5.063457350E0,1.474978924E-1,-4.619952679E0,7.349491119E-1
5.068279277E0,1.578918099E-1,-4.635096073E0,6.387062073E-1
5.073101256E0,1.660676599E-1,-4.648525238E0,5.470876694E-1
5.077923183E0,1.797147989E-1,-4.652881622E0,4.502935410E-1
5.082745110E0,1.957008541E-1,-4.638390064E0,3.623905182E-1
5.087567089E0,1.978448629E-1,-4.644371033E0,2.664051056E-1
5.092389016E0,2.116617262E-1,-4.644309998E0,1.644382477E-1
5.097210943E0,2.327910066E-1,-4.637000561E0,7.781982422E-2
5.102032923E0,2.580539882E-1,-4.623505116E0,-2.720451355E-2
5.106854850E0,2.663113475E-1,-4.625262737E0,-1.329298019E-1
5.111676829E0,2.901339531E-1,-4.625393391E0,-2.444195747E-1
5.116498756E0,2.974970639E-1,-4.625132561E0,-3.474936485E-1
5.121320683E0,3.243815303E-1,-4.628057480E0,-4.471406937E-1
5.126142662E0,3.399136662E-1,-4.617409706E0,-5.471472740E-1
5.130964589E0,3.394016922E-1,-4.607528687E0,-6.524786949E-1
5.135786516E0,3.648227453E-1,-4.616402626E0,-7.273907661E-1
5.140608496E0,3.707100749E-1,-4.618952274E0,-8.007221222E-1
5.145430423E0,3.952091038E-1,-4.623538017E0,-8.797941208E-1
5.150252350E0,4.012318254E-1,-4.619495392E0,-9.383573532E-1
5.155074329E0,4.138720632E-1,-4.618782043E0,-9.968562126E-1
5.159896256E0,4.138011336E-1,-4.633405209E0,-1.035021782E0
5.164718235E0,4.224564731E-1,-4.637108803E0,-1.044544697E0
5.169540162E0,4.240683019E-1,-4.628727913E0,-1.045826912E0
5.174362089E0,4.220589995E-1,-4.622640133E0,-1.055630207E0
5.179184068E0,4.233781397E-1,-4.612902641E0,-1.040492535E0
5.184005996E0,4.324347079E-1,-4.615045547E0,-1.013623238E0
5.188827923E0,4.335680008E-1,-4.609985352E0,-9.702172279E-1
5.193649902E0,4.324336648E-1,-4.591812134E0,-9.257817268E-1
5.198471829E0,4.322518110E-1,-4.603555202E0,-8.719506264E-1
5.203293756E0,4.160105586E-1,-4.602283478E0,-8.098077774E-1
5.208115735E0,4.048019350E-1,-4.584360600E0,-7.644901276E-1
5.212937662E0,4.067373276E-1,-4.580995560E0,-6.964054108E-1
5.217759589E0,3.940140605E-1,-4.575464249E0,-6.330018044E-1
5.222581568E0,3.841260076E-1,-4.588161469E0,-6.016502380E-1
5.227403496E0,3.743603230E-1,-4.589278221E0,-5.496120453E-1
5.232225475E0,3.715516925E-1,-4.599293232E0,-5.317039490E-1
5.237047402E0,3.730264902E-1,-4.621861458E0,-5.047345161E-1
5.241869329E0,3.784178793E-1,-4.636765480E0,-4.852957726E-1
5.246691308E0,3.635858595E-1,-4.633367062E0,-4.756097794E-1
5.251513235E0,3.510451913E-1,-4.644087791E0,-4.587512016E-1
5.256335162E0,3.607997894E-1,-4.648757458E0,-4.225869179E-1
5.261157141E0,3.556271791E-1,-4.631968498E0,-4.111738205E-1
5.265979068E0,3.462093472E-1,-4.642904282E0,-3.908100128E-1
5.270801048E0,3.455805182E-1,-4.649392128E0,-3.649024963E-1
5.275622975E0,3.404409289E-1,-4.645678520E0,-3.093199730E-1
5.280444902E0,3.403624296E-1,-4.635452747E0,-2.693338394E-1
5.285266829E0,3.440583944E-1,-4.618957043E0,-2.040472031E-1
5.290088808E0,3.337471485E-1,-4.603544235E0,-1.144552231E-1
5.294910735E0,3.237772584E-1,-4.580971718E0,-2.072525024E-2
5.299732714E0,3.131709695E-1,-4.564647675E0,5.829238892E-2
5.304554641E0,3.139777184E-1,-4.536801338E0,1.634359360E-1
5.309376568E0,2.942487597E-1,-4.514395237E0,2.734003067E-1
5.314198548E0,3.116354942E-1,-4.480961800E0,3.848409653E-1
5.319020475E0,2.993777692E-1,-4.453409672E0,4.859724045E-1
5.323842402E0,3.045686483E-1,-4.421209812E0,5.913572311E-1
5.328664381E0,2.797413468E-1,-4.388213158E0,6.736993790E-1
5.333486308E0,2.828316391E-1,-4.359467506E0,7.559270859E-1
5.338308235E0,2.687218189E-1,-4.320889473E0,8.274345398E-1
5.343130214E0,2.702046633E-1,-4.299004555E0,8.668565750E-1
5.347952141E0,2.721828818E-1,-4.239056110E0,9.173593521E-1
5.352774121E0,2.763848305E-1,-4.202342033E0,9.396238327E-1
5.357596048E0,2.867419422E-1,-4.160356522E0,9.671916962E-1
5.362417975E0,2.821945548E-1,-4.103747368E0,9.774017334E-1
5.367239954E0,2.906441391E-1,-4.063815117E0,9.965953827E-1
5.372061881E0,2.837055326E-1,-4.003785133E0,1.005691528E0
5.376883808E0,2.796990573E-1,-3.950146914E0,1.013060570E0
5.381705787E0,2.848373950E-1,-3.887486935E0,1.033015251E0
5.386527714E0,2.729754150E-1,-3.816037655E0,1.053585052E0
5.391349693E0,2.574933171E-1,-3.763502598E0,1.104631424E0
5.396171621E0,2.599860132E-1,-3.703612804E0,1.162148476E0
5.400993548E0,2.649723291E-1,-3.625858784E0,1.244044304E0
5.405815527E0,2.520922422E-1,-3.575805902E0,1.314400673E0
5.410637454E0,2.476244271E-1,-3.493771553E0,1.400665283E0
5.415459381E0,2.430267036E-1,-3.442039967E0,1.499188423E0
5.420281360E0,2.249133140E-1,-3.364462137E0,1.613473892E0
5.425103287E0,2.300930321E-1,-3.297014713E0,1.733895302E0
5.429925214E0,2.354354709E-1,-3.225360394E0,1.842447281E0
5.434747193E0,1.999206245E-1,-3.160273790E0,1.954610825E0
5.439569121E0,1.889811456E-1,-3.083888531E0,2.076301575E0
5.444391048E0,1.852433085E-1,-2.986568451E0,2.161996841E0
5.449213027E0,1.810660362E-1,-2.905410767E0,2.241544724E0
5.454034954E0,1.508550942E-1,-2.822372675E0,2.322023392E0
5.458856933E0,1.261929274E-1,-2.744511127E0,2.390170097E0
5.463678860E0,1.197188497E-1,-2.635815144E0,2.437523842E0
5.468500787E0,1.021459699E-1,-2.548795700E0,2.485509872E0
5.473322766E0,7.902812958E-2,-2.461758137E0,2.499370575E0
5.478144693E0,5.454319715E-2,-2.375765800E0,2.512491226E0
5.482966621E0,4.613214731E-2,-2.294081926E0,2.492472649E0
5.487788600E0,3.066569567E-2,-2.162793636E0,2.512156487E0
5.492610527E0,1.149773598E-2,-2.073731899E0,2.491337776E0
5.497432454E0,1.578378677E-2,-1.968003035E0,2.472988129E0
5.502254433E0,-3.344118595E-3,-1.868106723E0,2.449858665E0
5.507076360E0,-2.918404341E-2,-1.757050276E0,2.408755302E0
5.511898287E0,-3.078114986E-2,-1.653595924E0,2.384282112E0
5.516720266E0,-5.587965250E-2,-1.539594531E0,2.351307869E0
5.521542193E0,-6.964737177E-2,-1.429075599E0,2.324157715E0
5.526364121E0,-9.336417913E-2,-1.330137610E0,2.282512665E0
5.531186100E0,-9.693276882E-2,-1.217281938E0,2.250273705E0
5.536008027E0,-9.551930428E-2,-1.100963831E0,2.208325386E0
5.540830006E0,-1.054101586E-1,-9.665389061E-1,2.155508041E0
5.545651933E0,-1.010555029E-1,-8.615986705E-1,2.107406616E0
5.550473860E0,-1.152781844E-1,-7.450103760E-1,2.048493385E0
5.555295839E0,-9.011211991E-2,-6.273936629E-1,1.972860336E0
5.560117766E0,-9.677812457E-2,-5.095063448E-1,1.903240204E0
5.564939693E0,-1.046345532E-1,-4.066477418E-1,1.818161964E0
5.569761673E0,-9.514552355E-2,-2.862687707E-1,1.745159149E0
5.574583600E0,-8.079290390E-2,-1.864355803E-1,1.660354614E0
5.579405579E0,-6.581985950E-2,-8.055114746E-2,1.554232597E0
5.584227506E0,-7.598067820E-2,3.636223078E-2,1.448364258E0
5.589049433E0,-5.933345854E-2,1.477023959E-1,1.345185280E0
5.593871412E0,-4.288163781E-2,2.488732934E-1,1.247131348E0
5.598693339E0,-3.471519798E-2,3.389148116E-1,1.144680977E0
5.603515266E0,-4.162045568E-2,4.274639487E-1,1.059428215E0
5.608337246E0,-4.071280360E-2,5.062634349E-1,9.830617905E-1
5.613159173E0,-3.544772416E-2,6.076176167E-1,9.013357162E-1
5.617981100E0,-5.097758770E-2,6.861368418E-1,8.466262817E-1
5.622803079E0,-4.300723225E-2,7.812520266E-1,8.070745468E-1
5.627625006E0,-4.049127549E-2,8.488272429E-1,7.684564590E-1
5.632446985E0,-5.671352893E-2,9.210542440E-1,7.619905472E-1
5.637268912E0,-6.692688912E-2,9.799928665E-1,7.603111267E-1
5.642090839E0,-7.862155885E-2,1.052971959E0,7.874717712E-1
5.646912818E0,-9.944234788E-2,1.125563979E0,8.352394104E-1
5.651734746E0,-1.263306290E-1,1.190476656E0,8.929996490E-1
5.656556673E0,-1.442690790E-1,1.251123071E0,9.489526749E-1
5.661378652E0,-1.585874259E-1,1.315672874E0,1.027152061E0
5.666200579E0,-1.604605764E-1,1.375490427E0,1.118148804E0
5.671022558E0,-1.826875508E-1,1.429179788E0,1.211303711E0
5.675844485E0,-2.330835760E-1,1.506348372E0,1.316284180E0
5.680666412E0,-2.345034480E-1,1.544456005E0,1.408067703E0
5.685488391E0,-2.509517074E-1,1.611428618E0,1.511845589E0
5.690310318E0,-2.817165554E-1,1.670956969E0,1.600161552E0
5.695132246E0,-2.865966856E-1,1.722723603E0,1.676658630E0
5.699954225E0,-3.018939793E-1,1.774706721E0,1.758086205E0
5.704776152E0,-3.314568698E-1,1.838498712E0,1.842052460E0
5.709598079E0,-3.467971385E-1,1.900458694E0,1.918948174E0
5.714420058E0,-3.516819179E-1,1.953155756E0,1.978015900E0
5.719241985E0,-3.582221270E-1,2.017646790E0,2.046683311E0
5.724063964E0,-3.578448594E-1,2.077842951E0,2.118858337E0
5.728885891E0,-3.637594581E-1,2.138345242E0,2.181345940E0
5.733707818E0,-3.768797517E-1,2.206975937E0,2.253126144E0
5.738529798E0,-3.766900599E-1,2.271523952E0,2.317369461E0
5.743351725E0,-3.736456037E-1,2.329215050E0,2.391856194E0
5.748173652E0,-3.673835695E-1,2.416697025E0,2.450110435E0
5.752995631E0,-3.945006132E-1,2.481102467E0,2.538600922E0
5.757817558E0,-3.816345930E-1,2.555555582E0,2.605697632E0
5.762639537E0,-3.821547031E-1,2.625401974E0,2.672725677E0
5.767461464E0,-3.847908974E-1,2.695196390E0,2.729917526E0
5.772283391E0,-3.782557845E-1,2.761079788E0,2.790179253E0
5.777105318E0,-3.787832558E-1,2.838327408E0,2.836512566E0
5.781927298E0,-3.787418604E-1,2.936349392E0,2.863928795E0
5.786749225E0,-3.668641448E-1,3.014176369E0,2.918719292E0
5.791571204E0,-3.619684875E-1,3.075405598E0,2.930149078E0
5.796393131E0,-3.479999304E-1,3.156850576E0,2.931399345E0
5.801215058E0,-3.534149230E-1,3.227401257E0,2.931824684E0
5.806037037E0,-3.454873562E-1,3.298810959E0,2.926321983E0
5.810858964E0,-3.526822925E-1,3.373507500E0,2.908726692E0
5.815680891E0,-3.318761587E-1,3.454985142E0,2.868043900E0
5.820502871E0,-3.438731432E-1,3.548005342E0,2.826798439E0
5.825324798E0,-3.335129619E-1,3.605929852E0,2.778804779E0
5.830146777E0,-3.342680931E-1,3.700501919E0,2.740616798E0
5.834968704E0,-3.508934677E-1,3.756409407E0,2.692938805E0
5.839790631E0,-3.499603868E-1,3.827522278E0,2.640434265E0
5.844612610E0,-3.458923697E-1,3.898286104E0,2.590131760E0
5.849434537E0,-3.328710794E-1,3.954430103E0,2.547916412E0
5.854256464E0,-3.409177363E-1,4.017534733E0,2.505330086E0
5.859078443E0,-3.403060734E-1,4.064972401E0,2.476668358E0
5.863900371E0,-3.360257745E-1,4.111098289E0,2.441508293E0
5.868722298E0,-3.307667077E-1,4.172729492E0,2.423742294E0
5.873544277E0,-3.414160907E-1,4.229582787E0,2.410169601E0
5.878366204E0,-3.407627642E-1,4.261415005E0,2.399588585E0
5.883188183E0,-3.494553864E-1,4.297046185E0,2.380077362E0
5.888010110E0,-3.487304449E-1,4.335355759E0,2.358844757E0
5.892832037E0,-3.424385488E-1,4.375197411E0,2.338293076E0
5.897654016E0,-3.475816846E-1,4.411921501E0,2.308938026E0
5.902475943E0,-3.585778475E-1,4.428855419E0,2.262458801E0
5.907297871E0,-3.458314836E-1,4.453630447E0,2.224050522E0
5.912119850E0,-3.514961004E-1,4.474380970E0,2.165092468E0
5.916941777E0,-3.555595279E-1,4.502066135E0,2.103681564E0
5.921763704E0,-3.427343965E-1,4.531960964E0,2.029123306E0
5.926585683E0,-3.395400047E-1,4.549808025E0,1.941507339E0
5.931407610E0,-3.390983939E-1,4.580921173E0,1.842206001E0
5.936229589E0,-3.488316238E-1,4.588357925E0,1.745677948E0
5.941051516E0,-3.508921564E-1,4.601004601E0,1.654456139E0
5.945873443E0,-3.430520296E-1,4.591438293E0,1.545909882E0
5.950695423E0,-3.446167707E-1,4.601735115E0,1.436967850E0
5.955517350E0,-3.461563885E-1,4.608089447E0,1.319386482E0
5.960339277E0,-3.404844999E-1,4.616583824E0,1.212399483E0
5.965161256E0,-3.396321535E-1,4.614313602E0,1.116192818E0
5.969983183E0,-3.268355727E-1,4.608544350E0,1.026069641E0
5.974805162E0,-3.414589763E-1,4.597058296E0,9.218616486E-1
5.979627089E0,-3.392706513E-1,4.589557648E0,8.419523239E-1
5.984449016E0,-3.393304944E-1,4.581456661E0,7.805061340E-1
5.989270996E0,-3.366371989E-1,4.589659214E0,7.149448395E-1
5.994092923E0,-3.549688160E-1,4.573635101E0,6.501665115E-1
5.998914850E0,-3.427347839E-1,4.563440800E0,5.874958038E-1
6.003736829E0,-3.475814760E-1,4.531729698E0,5.485572815E-1
6.008558756E0,-3.571971655E-1,4.518184662E0,4.904661179E-1
6.013380735E0,-3.535052538E-1,4.493033886E0,4.372396469E-1
6.018202662E0,-3.432635069E-1,4.476729870E0,3.889627457E-1
6.023024589E0,-3.453844786E-1,4.461140156E0,3.254623413E-1
6.027846568E0,-3.367680609E-1,4.447535515E0,2.623414993E-1
6.032668496E0,-3.183470964E-1,4.432525158E0,1.901454926E-1
6.037490423E0,-2.993295789E-1,4.437791348E0,1.006078720E-1
6.042312402E0,-3.033259809E-1,4.418022633E0,1.769638062E-2
6.047134329E0,-3.036754429E-1,4.369828701E0,-5.614280701E-2
6.051956256E0,-2.857555151E-1,4.345971584E0,-1.363973618E-1
6.056778235E0,-2.804126143E-1,4.328595161E0,-2.039222717E-1
6.061600162E0,-2.610249519E-1,4.309415340E0,-2.790307999E-1
6.066422141E0,-2.442300618E-1,4.283805370E0,-3.282098770E-1
6.071244068E0,-2.417068481E-1,4.248319626E0,-3.789491653E-1
6.076065996E0,-2.377695292E-1,4.230447769E0,-4.181280136E-1
6.080887975E0,-2.179035246E-1,4.186136723E0,-4.265918732E-1
6.085709902E0,-2.048281729E-1,4.158527374E0,-4.533548355E-1
6.090531881E0,-1.853245199E-1,4.134502411E0,-4.446258545E-1
6.095353808E0,-1.808926463E-1,4.096128941E0,-4.267606735E-1
6.100175735E0,-1.784278154E-1,4.074596882E0,-3.949632645E-1
6.104997714E0,-1.707817316E-1,4.020927429E0,-3.432750702E-1
6.109819641E0,-1.581289172E-1,4.000890732E0,-2.872657776E-1
6.114641568E0,-1.466168314E-1,3.965419531E0,-2.197942734E-1
6.119463548E0,-1.520359218E-1,3.912285805E0,-1.444091797E-1
6.124285475E0,-1.386966556E-1,3.877258539E0,-4.802417755E-2
6.129107402E0,-1.260351688E-1,3.819680452E0,5.259227753E-2
6.133929381E0,-1.323568374E-1,3.793302059E0,1.550197601E-1
6.138751308E0,-1.352316439E-1,3.732302427E0,2.568311691E-1
6.143573287E0,-1.219652146E-1,3.664130211E0,3.472299576E-1
6.148395214E0,-1.443412602E-1,3.634151459E0,4.417295456E-1
6.153217141E0,-1.441409737E-1,3.571740150E0,5.402793884E-1
6.158039121E0,-1.457314789E-1,3.505467892E0,6.392097473E-1
6.162861048E0,-1.506976187E-1,3.450724840E0,7.480030060E-1
6.167682975E0,-1.570891142E-1,3.394315720E0,8.558530807E-1
6.172504954E0,-1.580505669E-1,3.316890240E0,9.614524841E-1
6.177326881E0,-1.670923233E-1,3.245834827E0,1.077881813E0
6.182148860E0,-1.820908189E-1,3.165428877E0,1.183531761E0
6.186970787E0,-1.866105497E-1,3.087470293E0,1.295062065E0
6.191792714E0,-2.012536526E-1,3.022513151E0,1.409993172E0
6.196614693E0,-2.082553804E-1,2.934544325E0,1.523474693E0
6.201436621E0,-2.208839655E-1,2.846032858E0,1.642583847E0
6.206258548E0,-2.176474333E-1,2.749666929E0,1.763688087E0
6.211080527E0,-2.177072465E-1,2.657181263E0,1.872381210E0
6.215902454E0,-2.366309762E-1,2.564748049E0,1.994906425E0
6.220724381E0,-2.407328784E-1,2.474586487E0,2.124056816E0
6.225546360E0,-2.359210253E-1,2.378127337E0,2.222748756E0
6.230368287E0,-2.314771414E-1,2.270287991E0,2.343551636E0
6.235190214E0,-2.450824380E-1,2.160485029E0,2.455375671E0
6.240012193E0,-2.501149774E-1,2.078399897E0,2.559423447E0
6.244834121E0,-2.497867942E-1,1.955584288E0,2.656879425E0
6.249656100E0,-2.401502132E-1,1.831357241E0,2.748967171E0
6.254478027E0,-2.457821965E-1,1.717478156E0,2.845274925E0
6.259299954E0,-2.279872000E-1,1.612569332E0,2.933875084E0
6.264121933E0,-2.341470122E-1,1.503275394E0,3.001657486E0
6.268943860E0,-2.278190255E-1,1.373871326E0,3.059432030E0
6.273765839E0,-2.002038509E-1,1.262445688E0,3.114418030E0
6.278587766E0,-2.023168802E-1,1.149741173E0,3.177428246E0
6.283409693E0,-1.667322069E-1,1.023620129E0,3.207871437E0
6.288231673E0,-1.515111029E-1,8.912216425E-1,3.228574753E0
6.293053600E0,-1.348251104E-1,7.739150524E-1,3.255143166E0
6.297875527E0,-1.247555166E-1,6.525150537E-1,3.269742012E0
6.302697506E0,-1.066849679E-1,5.281007290E-1,3.276057243E0
6.307519433E0,-1.114648581E-1,3.959094286E-1,3.274217606E0
6.312341360E0,-9.950275719E-2,2.702587843E-1,3.283472061E0
6.317163339E0,-6.835779548E-2,1.499280930E-1,3.272868156E0
6.321985266E0,-5.040441453E-2,2.059149742E-2,3.268860817E0
6.326807246E0,-4.685729742E-2,-1.009525061E-1,3.257260323E0
6.331629173E0,-1.603600383E-2,-2.230414152E-1,3.250178337E0
6.336451152E0,-2.993968129E-2,-3.396173120E-1,3.242994308E0
6.341273079E0,-1.830539107E-2,-4.756793976E-1,3.243042946E0
6.346095006E0,-4.183679819E-3,-5.987921357E-1,3.238534927E0
6.350916985E0,4.736214876E-3,-7.196034789E-1,3.239192009E0
6.355738912E0,9.357541800E-3,-8.307157755E-1,3.221270561E0
6.360560839E0,4.263490438E-3,-9.558795691E-1,3.224362373E0
6.365382818E0,3.305226564E-3,-1.075750709E0,3.223480225E0
6.370204746E0,-5.909800529E-5,-1.194825053E0,3.212767601E0
6.375026673E0,-1.231983304E-2,-1.308121204E0,3.198311806E0
6.379848652E0,-1.377433538E-2,-1.416503310E0,3.156291008E0
6.384670579E0,-2.763178945E-2,-1.522096038E0,3.126236916E0
6.389492558E0,-3.524070978E-2,-1.613829017E0,3.074716568E0
6.394314485E0,-2.870202065E-2,-1.726021290E0,3.013721466E0
6.399136412E0,-4.424953461E-2,-1.806977868E0,2.943276405E0
6.403958391E0,-6.423878670E-2,-1.904192805E0,2.860991478E0
6.408780318E0,-6.983280182E-2,-1.988534451E0,2.789546013E0
6.413602246E0,-6.604146957E-2,-2.083543062E0,2.713343620E0
6.418424225E0,-8.161747456E-2,-2.179310799E0,2.596488953E0
6.423246152E0,-8.910906315E-2,-2.236137390E0,2.495135307E0
6.428068131E0,-9.559714794E-2,-2.309800863E0,2.387669563E0
6.432890058E0,-9.263998270E-2,-2.359337330E0,2.269227028E0
6.437711985E0,-1.015172601E-1,-2.448977947E0,2.149284363E0
6.442533964E0,-1.005063653E-1,-2.536446571E0,2.044439316E0
6.447355891E0,-1.071965098E-1,-2.577295542E0,1.945007324E0
6.452177818E0,-1.056500673E-1,-2.641765118E0,1.836506844E0
6.456999798E0,-1.253228784E-1,-2.675839186E0,1.737939835E0
6.461821725E0,-1.060487330E-1,-2.741302729E0,1.643127441E0
6.466643704E0,-8.797955513E-2,-2.787773609E0,1.538784027E0
6.471465631E0,-8.864358068E-2,-2.852098227E0,1.448643684E0
6.476287558E0,-7.876959443E-2,-2.887384415E0,1.365317345E0
6.481109537E0,-5.434867740E-2,-2.936512470E0,1.275463104E0
6.485931464E0,-4.362180829E-2,-2.962278843E0,1.181291580E0
6.490753391E0,-4.376530647E-2,-2.994504452E0,1.095771790E0
6.495575371E0,-3.522682190E-2,-3.047323942E0,1.030614853E0
6.500397298E0,-1.408156753E-2,-3.068045616E0,9.449710846E-1
6.505219277E0,-6.348639727E-3,-3.110445976E0,8.542242050E-1
6.510041204E0,1.573589444E-2,-3.152977467E0,7.821102142E-1
6.514863131E0,2.844682336E-2,-3.205113173E0,6.973381042E-1
6.519685110E0,5.347724259E-2,-3.241783619E0,6.189012527E-1
6.524507037E0,6.455385685E-2,-3.283248186E0,5.537710190E-1
6.529328964E0,6.296709180E-2,-3.324839354E0,4.755516052E-1
6.534150943E0,6.900911033E-2,-3.359409809E0,4.128103256E-1
6.538972871E0,8.268082142E-2,-3.416821241E0,3.629970551E-1
6.543794850E0,1.037337631E-1,-3.450559139E0,3.260278702E-1
6.548616777E0,9.625177085E-2,-3.501389980E0,2.898817062E-1
6.553438704E0,1.066183150E-1,-3.553775072E0,2.699937820E-1
6.558260683E0,1.131242812E-1,-3.592311382E0,2.460021973E-1
6.563082610E0,9.757897258E-2,-3.643392324E0,2.405757904E-1
6.567904537E0,8.245438337E-2,-3.691530704E0,2.381086349E-1
6.572726516E0,7.695889473E-2,-3.727320433E0,2.469625473E-1
6.577548443E0,6.886392832E-2,-3.762856007E0,2.611522675E-1
6.582370423E0,6.969660521E-2,-3.820870399E0,2.806205750E-1
6.587192350E0,6.962692738E-2,-3.858547211E0,2.994537354E-1
6.592014277E0,7.791763544E-2,-3.898710966E0,3.307943344E-1
6.596836256E0,5.230540037E-2,-3.941506863E0,3.423948288E-1
6.601658183E0,5.948933959E-2,-3.990719080E0,3.594408035E-1
6.606480162E0,5.252939463E-2,-4.047586441E0,3.699617386E-1
6.611302089E0,1.918190718E-2,-4.088401318E0,3.656749725E-1
6.616124016E0,2.252596617E-2,-4.138426304E0,3.669643402E-1
6.620945996E0,2.051776648E-2,-4.194182873E0,3.714694977E-1
6.625767923E0,1.047468185E-2,-4.220067978E0,3.589897156E-1
6.630589850E0,1.151615381E-2,-4.265217781E0,3.499135971E-1
6.635411829E0,1.140105724E-2,-4.291518688E0,3.311491013E-1
6.640233756E0,5.278199911E-3,-4.333811760E0,3.004121780E-1
6.645055735E0,-3.244400024E-3,-4.367205143E0,2.793521881E-1
6.649877662E0,-1.660773158E-2,-4.431220055E0,2.596387863E-1
6.654699589E0,-1.328134537E-2,-4.461494923E0,2.521495819E-1
6.659521568E0,-3.383409977E-2,-4.493990898E0,2.389993668E-1
6.664343496E0,-3.399306536E-2,-4.521735191E0,2.227134705E-1
6.669165423E0,-1.967236400E-2,-4.548459530E0,2.249050140E-1
6.673987402E0,-3.251138330E-2,-4.575433731E0,2.109613419E-1
6.678809329E0,-4.372239113E-2,-4.614779472E0,2.204542160E-1
6.683631308E0,-4.704874754E-2,-4.633148670E0,2.247753143E-1
6.688453235E0,-3.158277273E-2,-4.643798351E0,2.168321609E-1
6.693275162E0,-5.201795697E-2,-4.664788246E0,2.194414139E-1
6.698097141E0,-4.235288501E-2,-4.681903362E0,2.291021347E-1
6.702919068E0,-4.775694013E-2,-4.697655201E0,2.339410782E-1
6.707740996E0,-5.240136385E-2,-4.719277382E0,2.375993729E-1
6.712562975E0,-4.649260640E-2,-4.733706474E0,2.305774689E-1
6.717384902E0,-4.880914092E-2,-4.737470150E0,2.261047363E-1
6.722206881E0,-6.149837375E-2,-4.734269142E0,1.955575943E-1
6.727028808E0,-5.437938869E-2,-4.749269009E0,1.832218170E-1
6.731850735E0,-5.225966871E-2,-4.747823238E0,1.675786972E-1
6.736672714E0,-4.894329607E-2,-4.756316185E0,1.450843811E-1
6.741494641E0,-6.807784736E-2,-4.744930267E0,1.253395081E-1
6.746316568E0,-6.399635971E-2,-4.748395443E0,9.043216705E-2
6.751138548E0,-7.008150220E-2,-4.742798328E0,6.308078766E-2
6.755960475E0,-4.667609185E-2,-4.741294384E0,4.206943512E-2
6.760782454E0,-4.983860254E-2,-4.736776829E0,2.980804443E-2
6.765604381E0,-5.204795301E-2,-4.725588799E0,5.920410156E-3
6.770426308E0,-4.830692708E-2,-4.717403412E0,9.904861450E-3
6.775248287E0,-5.899874866E-2,-4.704972267E0,8.219718933E-3
6.780070214E0,-6.971278787E-2,-4.684704304E0,1.520156860E-2
6.784892141E0,-6.134999543E-2,-4.681743622E0,1.890850067E-2
6.789714121E0,-5.188223720E-2,-4.656547546E0,2.766036987E-2
6.794536048E0,-6.172116846E-2,-4.637811184E0,7.012557983E-2
6.799358027E0,-6.588406116E-2,-4.627825737E0,8.647060394E-2
6.804179954E0,-5.374662578E-2,-4.591905117E0,1.257076263E-1
6.809001881E0,-6.016226113E-2,-4.568215847E0,1.698360443E-1
6.813823860E0,-7.696193457E-2,-4.535209179E0,2.045021057E-1
6.818645787E0,-7.205204666E-2,-4.516732693E0,2.440261841E-1
6.823467766E0,-6.006222963E-2,-4.480413914E0,2.895498276E-1
6.828289693E0,-6.395073235E-2,-4.447643757E0,3.254623413E-1
6.833111621E0,-7.922750711E-2,-4.402805805E0,3.529262543E-1
6.837933600E0,-8.222487569E-2,-4.372100353E0,3.838491440E-1
6.842755527E0,-8.405441046E-2,-4.318376541E0,4.098062515E-1
6.847577454E0,-7.425348461E-2,-4.284486294E0,4.366712570E-1
6.852399433E0,-9.131824970E-2,-4.253622532E0,4.464864731E-1
6.857221360E0,-1.056462228E-1,-4.202923298E0,4.511289597E-1
6.862043339E0,-1.103807092E-1,-4.158519745E0,4.505023956E-1
6.866865266E0,-1.153257489E-1,-4.095308781E0,4.661092758E-1
6.871687193E0,-1.218495369E-1,-4.052470207E0,4.571552277E-1
6.876509173E0,-1.230854392E-1,-3.997611523E0,4.678163528E-1
6.881331100E0,-1.370675564E-1,-3.949705124E0,4.657211304E-1
6.886153027E0,-1.364279389E-1,-3.877570391E0,4.747333527E-1
6.890975006E0,-1.523773372E-1,-3.821636677E0,4.767980576E-1
6.895796933E0,-1.574535370E-1,-3.748328447E0,4.694967270E-1
6.900618912E0,-1.601803899E-1,-3.690926075E0,4.718723297E-1
6.905440839E0,-1.604419351E-1,-3.615823984E0,4.994049072E-1
6.910262766E0,-1.725719273E-1,-3.547973394E0,4.970455170E-1
6.915084746E0,-1.928848922E-1,-3.480002403E0,5.042009354E-1
6.919906673E0,-2.069402635E-1,-3.418936491E0,5.279998779E-1
6.924728600E0,-1.952576339E-1,-3.313511372E0,5.240516663E-1
6.929550579E0,-1.900814772E-1,-3.202355862E0,5.272207260E-1
6.934372506E0,-1.852632463E-1,-3.117376804E0,5.326948166E-1
6.939194485E0,-1.876727045E-1,-3.019089699E0,5.298051834E-1
6.944016412E0,-1.802807003E-1,-2.920595884E0,5.305433273E-1
6.948838339E0,-1.866168380E-1,-2.820473909E0,5.253725052E-1
6.953660318E0,-1.789613962E-1,-2.718634129E0,5.393037796E-1
6.958482246E0,-1.760898978E-1,-2.620876312E0,5.283184052E-1
6.963304173E0,-1.645413488E-1,-2.533017397E0,5.270977020E-1
6.968126152E0,-1.546991467E-1,-2.462021589E0,5.071630478E-1
6.972948079E0,-1.438410729E-1,-2.372046709E0,5.055170059E-1
6.977770006E0,-1.256404817E-1,-2.269110918E0,5.066661835E-1
6.982591985E0,-1.200920194E-1,-2.193602085E0,5.094947815E-1
6.987413912E0,-1.113027483E-1,-2.102549076E0,5.176601410E-1
6.992235891E0,-1.038062125E-1,-2.020948410E0,5.098676682E-1
6.997057818E0,-1.104467213E-1,-1.934455156E0,5.267095566E-1
7.001879746E0,-1.095247790E-1,-1.852568746E0,5.443782806E-1
7.006701725E0,-1.044952869E-1,-1.776542187E0,5.808343887E-1
7.011523652E0,-8.464317024E-2,-1.696833014E0,6.230154037E-1
7.016345631E0,-7.377921045E-2,-1.626518726E0,6.579704285E-1
7.021167558E0,-8.256804198E-2,-1.539504647E0,7.203464508E-1
7.025989485E0,-7.408930361E-2,-1.454995394E0,7.780523300E-1
7.030811464E0,-8.185000718E-2,-1.375470519E0,8.443670273E-1
7.035633391E0,-1.023055762E-1,-1.314032316E0,9.265098572E-1
7.040455318E0,-9.758207202E-2,-1.236269832E0,1.028097153E0
7.045277298E0,-1.003299356E-1,-1.162624240E0,1.120660782E0
7.050099225E0,-9.293411672E-2,-1.092046261E0,1.219876289E0
7.054921204E0,-1.055369079E-1,-1.023437619E0,1.319905281E0
7.059743131E0,-1.217496693E-1,-9.524306059E-1,1.430414200E0
7.064565058E0,-1.253543794E-1,-8.660751581E-1,1.541938782E0
7.069387037E0,-1.335237026E-1,-7.932311296E-1,1.652223587E0
7.074208964E0,-1.383716464E-1,-7.246315479E-1,1.773254395E0
7.079030891E0,-1.473619044E-1,-6.627748013E-1,1.899506569E0
7.083852871E0,-1.515652835E-1,-5.707508922E-1,2.013524055E0
7.088674798E0,-1.430927515E-1,-5.026942492E-1,2.140460968E0
7.093496725E0,-1.498050094E-1,-4.384931922E-1,2.251653671E0
7.098318704E0,-1.457007527E-1,-3.665927649E-1,2.373424530E0
7.103140631E0,-1.514082253E-1,-2.777889669E-1,2.463932037E0
7.107962610E0,-1.683188379E-1,-1.962985694E-1,2.557849884E0
7.112784537E0,-1.511778235E-1,-1.092496812E-1,2.652746201E0
7.117606464E0,-1.443107724E-1,-3.503131866E-2,2.713915825E0
7.122428443E0,-1.584939361E-1,4.281735420E-2,2.813028336E0
7.127250371E0,-1.590270996E-1,1.502993703E-1,2.902173042E0
7.132072350E0,-1.506416202E-1,2.393245697E-1,2.976495743E0
7.136894277E0,-1.294955015E-1,3.370170593E-1,3.047869682E0
7.141716204E0,-1.372915804E-1,4.359709024E-1,3.120974541E0
7.146538183E0,-1.138456762E-1,5.407022834E-1,3.187338829E0
7.151360110E0,-1.163575351E-1,6.234409809E-1,3.243256569E0
7.156182037E0,-1.060080826E-1,7.186408043E-1,3.289816856E0
7.161004016E0,-9.456121922E-2,8.320678473E-1,3.357958794E0
7.165825943E0,-8.151072264E-2,9.205200672E-1,3.409287453E0
7.170647923E0,-6.762561202E-2,1.032844782E0,3.446072578E0
7.175469850E0,-5.722150207E-2,1.132942677E0,3.482507706E0
7.180291777E0,-4.156070948E-2,1.239855170E0,3.516057968E0
7.185113756E0,-3.215098381E-2,1.339161396E0,3.527463913E0
7.189935683E0,-1.664119959E-2,1.441452980E0,3.544062614E0
7.194757610E0,-6.639748812E-3,1.543143034E0,3.546600342E0
7.199579589E0,1.377817988E-2,1.637027264E0,3.544511795E0
7.204401516E0,3.169941902E-2,1.755280972E0,3.517333031E0
7.209223496E0,4.491215944E-2,1.868138790E0,3.513998032E0
7.214045423E0,4.413083196E-2,1.965955257E0,3.475779533E0
7.218867350E0,5.689841509E-2,2.072699308E0,3.434875488E0
7.223689329E0,7.491657138E-2,2.155011177E0,3.397192955E0
7.228511256E0,6.839728355E-2,2.273826599E0,3.343492508E0
7.233333183E0,8.737561107E-2,2.377840996E0,3.274928093E0
7.238155162E0,1.030859053E-1,2.469582081E0,3.230903625E0
7.242977089E0,1.165448129E-1,2.574245930E0,3.195802689E0
7.247799016E0,1.265188456E-1,2.672775745E0,3.139696121E0
7.252620996E0,1.230936348E-1,2.774911165E0,3.076936722E0
7.257442923E0,1.299088001E-1,2.878396273E0,3.020659447E0
7.262264902E0,1.287884712E-1,2.961865425E0,2.969657898E0
7.267086829E0,1.372538507E-1,3.045738697E0,2.919111252E0
7.271908756E0,1.514233947E-1,3.152956486E0,2.866666794E0
7.276730735E0,1.517513394E-1,3.234673262E0,2.819508553E0
7.281552662E0,1.595354676E-1,3.312520504E0,2.759691238E0
7.286374589E0,1.551324725E-1,3.401088238E0,2.689660072E0
7.291196568E0,1.657749116E-1,3.488475561E0,2.627326012E0
7.296018496E0,1.660147905E-1,3.560608625E0,2.547642708E0
7.300840475E0,1.770387590E-1,3.660712004E0,2.461415291E0
7.305662402E0,1.746272445E-1,3.724349737E0,2.375823021E0
7.310484329E0,1.669059992E-1,3.801949501E0,2.277760506E0
7.315306308E0,1.799872518E-1,3.873359203E0,2.181621552E0
7.320128235E0,1.730230451E-1,3.959039688E0,2.067113876E0
7.324950162E0,1.840826869E-1,4.014966965E0,1.941485405E0
7.329772141E0,1.963992119E-1,4.090316772E0,1.826306343E0
7.334594068E0,2.050135136E-1,4.156595707E0,1.707289696E0
7.339416048E0,2.159364820E-1,4.225842476E0,1.586857796E0
7.344237975E0,2.304068208E-1,4.279152393E0,1.467499733E0
7.349059902E0,2.365238667E-1,4.338082314E0,1.343248367E0
7.353881881E0,2.415454388E-1,4.383691788E0,1.228544235E0
7.358703808E0,2.539628148E-1,4.441224098E0,1.122253418E0
7.363525787E0,2.607540488E-1,4.503643513E0,1.011308670E0
7.368347714E0,2.765408158E-1,4.553042889E0,9.256258011E-1
7.373169641E0,2.859745026E-1,4.605090618E0,8.413562775E-1
7.377991621E0,2.856870890E-1,4.625160217E0,7.406139374E-1
7.382813548E0,2.914460897E-1,4.679206848E0,6.701421738E-1
7.387635475E0,3.047057688E-1,4.712269783E0,5.821657181E-1
7.392457454E0,3.173644543E-1,4.759029865E0,5.233364105E-1
7.397279381E0,3.249541819E-1,4.803969383E0,4.518470764E-1
7.402101360E0,3.420577645E-1,4.833982468E0,3.976297379E-1
7.406923287E0,3.485658765E-1,4.870687962E0,3.416185379E-1
7.411745214E0,3.447862267E-1,4.896132946E0,2.850275040E-1
7.416567193E0,3.609233499E-1,4.909105301E0,2.302646637E-1
7.421389121E0,3.696690798E-1,4.947877407E0,1.952791214E-1
7.426211048E0,3.855109513E-1,4.983763218E0,1.657381058E-1
7.431033027E0,3.835562766E-1,4.990382195E0,1.177072525E-1
7.435854954E0,3.902680874E-1,5.019129276E0,9.303569794E-2
7.440676881E0,4.117675126E-1,5.041300297E0,6.064510345E-2
7.445498860E0,3.979047239E-1,5.047279835E0,4.083633423E-2
7.450320787E0,4.146012664E-1,5.062088490E0,9.661674500E-3
7.455142766E0,4.318533242E-1,5.074932575E0,1.611328125E-2
7.459964693E0,4.425728321E-1,5.076182365E0,5.152702332E-3
7.464786621E0,4.372174144E-1,5.093255520E0,1.500320435E-2
7.469608600E0,4.324645400E-1,5.108101845E0,3.841304779E-2
7.474430527E0,4.484769702E-1,5.124296665E0,5.862617493E-2
7.479252454E0,4.434158802E-1,5.121327877E0,9.466171265E-2
7.484074433E0,4.458450377E-1,5.117064953E0,1.321086884E-1
7.488896360E0,4.627397954E-1,5.118581295E0,1.840486526E-1
7.493718287E0,4.401671886E-1,5.128145218E0,2.432136536E-1
7.498540266E0,4.544689655E-1,5.126528263E0,3.143053055E-1
7.503362193E0,4.636560380E-1,5.112387180E0,3.888359070E-1
7.508184173E0,4.626645148E-1,5.096446037E0,4.667415619E-1
7.513006100E0,4.465424418E-1,5.092814445E0,5.514402390E-1
7.517828027E0,4.389608502E-1,5.088274479E0,6.321020126E-1
7.522650006E0,4.420597553E-1,5.064774513E0,7.313222885E-1
7.527471933E0,4.341334701E-1,5.062774658E0,8.250207901E-1
7.532293860E0,4.364770055E-1,5.069025993E0,9.023618698E-1
7.537115839E0,4.345139861E-1,5.047471523E0,9.942626953E-1
7.541937766E0,4.340288341E-1,5.016005993E0,1.073140144E0
7.546759746E0,4.360082746E-1,5.006764412E0,1.153209686E0
7.551581673E0,4.223691225E-1,5.000438213E0,1.215203285E0
7.556403600E0,4.073351920E-1,4.958644867E0,1.303224564E0
7.561225579E0,4.085912704E-1,4.930317402E0,1.368126869E0
7.566047506E0,3.902512789E-1,4.883004189E0,1.427723885E0
7.570869433E0,3.880229890E-1,4.862082005E0,1.499871254E0
7.575691412E0,3.959042430E-1,4.836242199E0,1.568860054E0
7.580513339E0,3.718981147E-1,4.810194016E0,1.632220268E0
7.585335266E0,3.806077540E-1,4.768217087E0,1.696995735E0
7.590157246E0,3.777801692E-1,4.728207111E0,1.771515846E0
7.594979173E0,3.610661030E-1,4.691179276E0,1.853259087E0
7.599801100E0,3.723248839E-1,4.646279335E0,1.918267250E0
7.604623079E0,3.613853455E-1,4.594577789E0,1.995163918E0
7.609445006E0,3.510919809E-1,4.537178993E0,2.062397957E0
7.614266985E0,3.248624802E-1,4.484691620E0,2.141431808E0
7.619088912E0,3.222712278E-1,4.426176548E0,2.214257240E0
7.623910839E0,3.063995242E-1,4.373535633E0,2.282103539E0
7.628732818E0,3.276255131E-1,4.302793026E0,2.349780083E0
7.633554746E0,3.024475574E-1,4.240118027E0,2.408911705E0
7.638376725E0,2.980582714E-1,4.175830841E0,2.466696739E0
7.643198652E0,3.050729930E-1,4.102658749E0,2.505236626E0
7.648020579E0,2.962732315E-1,4.019342422E0,2.548521042E0
7.652842558E0,3.005408943E-1,3.948522568E0,2.579872131E0
7.657664485E0,2.858465910E-1,3.868597984E0,2.605355263E0
7.662486412E0,2.978912592E-1,3.793905258E0,2.619118690E0
7.667308391E0,2.914915085E-1,3.706341267E0,2.629570961E0
7.672130318E0,3.063198328E-1,3.628626585E0,2.640439987E0
7.676952246E0,2.899985611E-1,3.533271551E0,2.647089005E0
7.681774225E0,2.929496765E-1,3.439333439E0,2.647233009E0
7.686596152E0,2.879191637E-1,3.350464821E0,2.638680458E0
7.691418131E0,2.917400599E-1,3.249873161E0,2.649044037E0
7.696240058E0,3.081369400E-1,3.167452574E0,2.640224457E0
7.701061985E0,2.977830172E-1,3.070960760E0,2.632739067E0
7.705883964E0,2.907202244E-1,2.968731642E0,2.635094643E0
7.710705891E0,3.060309887E-1,2.857371330E0,2.643938065E0
7.715527818E0,3.067000806E-1,2.760778189E0,2.631938934E0
7.720349798E0,2.878986895E-1,2.663543224E0,2.648340225E0
7.725171725E0,2.782880366E-1,2.544166803E0,2.646664619E0
7.729993652E0,2.980310917E-1,2.454306126E0,2.634366989E0
7.734815631E0,2.919459343E-1,2.367720366E0,2.640316963E0
7.739637558E0,2.886255085E-1,2.263042450E0,2.639603615E0
7.744459537E0,2.722617388E-1,2.148887634E0,2.636039734E0
7.749281464E0,2.616481483E-1,2.060039759E0,2.627396584E0
7.754103391E0,2.601636648E-1,1.965651035E0,2.603137970E0
7.758925371E0,2.482233644E-1,1.868431568E0,2.589762688E0
7.763747298E0,2.410607040E-1,1.779359698E0,2.545593262E0
7.768569225E0,2.180925012E-1,1.690333605E0,2.526987076E0
7.773391204E0,1.980118752E-1,1.602889419E0,2.485068321E0
7.778213131E0,1.841153204E-1,1.534002781E0,2.439095497E0
7.783035058E0,1.664621234E-1,1.452915072E0,2.398743629E0
7.787857037E0,1.565965414E-1,1.352779031E0,2.331819534E0
7.792678964E0,1.267826557E-1,1.271011829E0,2.275485039E0
7.797500943E0,1.161669493E-1,1.198408246E0,2.220226288E0
7.802322871E0,1.029996276E-1,1.122160912E0,2.142186165E0
7.807144798E0,8.955276012E-2,1.059297800E0,2.085625648E0
7.811966777E0,6.603759527E-2,9.718849063E-1,2.008699417E0
7.816788704E0,3.604024649E-2,9.093098640E-1,1.926976204E0
7.821610631E0,1.859807968E-2,8.288477063E-1,1.873899460E0
7.826432610E0,6.585717201E-3,7.679011226E-1,1.818343163E0
7.831254537E0,-3.492474556E-3,7.028923631E-1,1.748325348E0
7.836076516E0,-1.623857021E-2,6.543769836E-1,1.674565315E0
7.840898443E0,-5.303442478E-2,5.820561647E-1,1.614935875E0
7.845720371E0,-4.057061672E-2,5.208061934E-1,1.552619934E0
7.850542350E0,-5.039155483E-2,4.601297379E-1,1.495903969E0
7.855364277E0,-8.568966389E-2,4.110342264E-1,1.445885658E0
7.860186204E0,-8.522975445E-2,3.390415311E-1,1.406040192E0
7.865008183E0,-9.032094479E-2,2.861568928E-1,1.355940819E0
7.869830110E0,-9.226945043E-2,2.262641490E-1,1.316991806E0
7.874652037E0,-8.711138368E-2,1.499336064E-1,1.291443825E0
7.879474016E0,-1.006610692E-1,9.792637825E-2,1.270791054E0
7.884295943E0,-1.050757766E-1,3.328388929E-2,1.253702164E0
7.889117871E0,-1.011255085E-1,-3.439903259E-2,1.220919609E0
7.893939850E0,-1.063828766E-1,-9.428864717E-2,1.208179474E0
7.898761777E0,-1.050193459E-1,-1.619997025E-1,1.197406769E0
7.903583756E0,-9.678572416E-2,-2.350620031E-1,1.195634842E0
7.908405683E0,-1.017498523E-1,-2.967268229E-1,1.182410240E0
7.913227610E0,-1.005389988E-1,-3.842480183E-1,1.187526703E0
7.918049589E0,-9.421630204E-2,-4.557329416E-1,1.197697639E0
7.922871516E0,-9.114722908E-2,-5.280953646E-1,1.219996452E0
7.927693443E0,-1.151825488E-1,-6.026113033E-1,1.237596512E0
7.932515423E0,-1.173541546E-1,-6.841675043E-1,1.262376785E0
7.937337350E0,-1.085246950E-1,-7.777593136E-1,1.281134605E0
7.942159277E0,-1.198504865E-1,-8.548038006E-1,1.320111275E0
7.946981256E0,-1.252378225E-1,-9.430440664E-1,1.362527847E0
7.951803183E0,-1.273688972E-1,-1.047339082E0,1.414311409E0
7.956625162E0,-1.552658230E-1,-1.123725414E0,1.470664024E0
7.961447089E0,-1.601206809E-1,-1.216685772E0,1.519632339E0
7.966269016E0,-1.710053235E-1,-1.325183868E0,1.568388939E0
7.971090996E0,-1.882392466E-1,-1.407601118E0,1.630084991E0
7.975912923E0,-2.097918838E-1,-1.510863781E0,1.684414864E0
7.980734850E0,-2.289703637E-1,-1.598052025E0,1.743339539E0
7.985556829E0,-2.544141710E-1,-1.692151070E0,1.799710274E0
7.990378756E0,-2.470468134E-1,-1.802974105E0,1.846395493E0
7.995200683E0,-2.681765556E-1,-1.897288799E0,1.901362419E0
8.000022662E0,-3.025230467E-1,-1.989744663E0,1.926413536E0
8.004844589E0,-3.204691112E-1,-2.094781876E0,1.941906929E0
8.009666568E0,-3.283325136E-1,-2.170867443E0,1.978981018E0
8.014488496E0,-3.286390305E-1,-2.274469614E0,1.980314255E0
8.019310423E0,-3.431444168E-1,-2.362621069E0,1.983010292E0
8.024132402E0,-3.611483574E-1,-2.445172310E0,1.963240623E0
8.028954329E0,-3.778742254E-1,-2.554620028E0,1.960532188E0
8.033776256E0,-3.838002682E-1,-2.650414705E0,1.940257072E0
8.038598235E0,-4.039930701E-1,-2.732811213E0,1.906100273E0
8.043420162E0,-4.048730731E-1,-2.821011782E0,1.878436089E0
8.048242089E0,-4.318203926E-1,-2.913980246E0,1.845380783E0
8.053064068E0,-4.176443219E-1,-2.990310907E0,1.801027298E0
8.057885996E0,-4.219356775E-1,-3.075265408E0,1.775341034E0
8.062707975E0,-4.301471114E-1,-3.146164894E0,1.722940445E0
8.067529902E0,-4.336277544E-1,-3.231880188E0,1.682182312E0
8.072351829E0,-4.309405982E-1,-3.302452803E0,1.641126633E0
8.077173808E0,-4.527657032E-1,-3.377124310E0,1.591479301E0
8.081995735E0,-4.582173824E-1,-3.459503174E0,1.545245171E0
8.086817662E0,-4.637877941E-1,-3.528088093E0,1.483347893E0
8.091639641E0,-4.522727728E-1,-3.604447365E0,1.441700935E0
8.096461568E0,-4.582396448E-1,-3.681259871E0,1.372476578E0
8.101283496E0,-4.632790685E-1,-3.747841358E0,1.319972038E0
8.106105475E0,-4.672016501E-1,-3.804090738E0,1.250702858E0
8.110927402E0,-4.649322033E-1,-3.865509748E0,1.195772171E0
8.115749381E0,-4.587188661E-1,-3.924823523E0,1.108554840E0
8.120571308E0,-4.650279284E-1,-3.986794949E0,1.056025505E0
8.125393235E0,-4.598111510E-1,-4.033328533E0,9.926996231E-1
8.130215214E0,-4.488664865E-1,-4.076335907E0,9.090347290E-1
8.135037141E0,-4.572665691E-1,-4.127501011E0,8.360509872E-1
8.139859068E0,-4.538210928E-1,-4.183254242E0,7.642049789E-1
8.144681048E0,-4.409066737E-1,-4.236254692E0,6.946496964E-1
8.149502975E0,-4.340929389E-1,-4.267205238E0,6.309194565E-1
8.154324902E0,-4.357820153E-1,-4.323753357E0,5.693702698E-1
8.159146881E0,-4.329160452E-1,-4.347178459E0,5.063781738E-1
8.163968808E0,-4.267523885E-1,-4.385118008E0,4.597997665E-1
8.168790735E0,-4.270464480E-1,-4.420639038E0,3.841419220E-1
8.173612714E0,-4.303404689E-1,-4.453601837E0,3.391342163E-1
8.178434641E0,-4.236634076E-1,-4.480243683E0,2.780637741E-1
8.183256621E0,-4.251034260E-1,-4.501549244E0,2.307224274E-1
8.188078548E0,-4.134004116E-1,-4.522181034E0,1.862831116E-1
8.192900475E0,-4.210816026E-1,-4.546684265E0,1.422281265E-1
8.197722454E0,-4.148846567E-1,-4.555752754E0,9.965038300E-2
8.202544381E0,-4.189217687E-1,-4.575541973E0,5.844688416E-2
8.207366308E0,-4.190924764E-1,-4.595110416E0,2.089309692E-2
8.212188287E0,-4.203721285E-1,-4.586803913E0,-3.225612640E-2
8.217010214E0,-4.110921621E-1,-4.589906693E0,-8.080768585E-2
8.221832141E0,-4.153050184E-1,-4.603008270E0,-1.285028458E-1
8.226654121E0,-4.153290093E-1,-4.603231430E0,-1.838521957E-1
8.231476048E0,-4.185644388E-1,-4.609565258E0,-2.242813110E-1
8.236298027E0,-4.154735804E-1,-4.594440460E0,-2.881488800E-1
8.241119954E0,-4.171129167E-1,-4.591062069E0,-3.230772018E-1
8.245941881E0,-4.342800081E-1,-4.580223083E0,-3.793992996E-1
8.250763860E0,-4.359494448E-1,-4.569005489E0,-4.237604141E-1
8.255585787E0,-4.462068379E-1,-4.562054157E0,-4.790258408E-1
8.260407714E0,-4.220789075E-1,-4.543635368E0,-5.238652229E-1
8.265229693E0,-4.377432466E-1,-4.519682884E0,-5.643682480E-1
8.270051621E0,-4.428875446E-1,-4.509166241E0,-6.066827774E-1
8.274873600E0,-4.399118721E-1,-4.483334064E0,-6.425390244E-1
8.279695527E0,-4.312310815E-1,-4.464766502E0,-6.912159920E-1
8.284517454E0,-4.275816679E-1,-4.423511028E0,-7.133679390E-1
8.289339433E0,-4.372781515E-1,-4.397749901E0,-7.425894737E-1
8.294161360E0,-4.386436939E-1,-4.390913010E0,-7.634744644E-1
8.298983287E0,-4.410944879E-1,-4.349156380E0,-7.928342819E-1
8.303805266E0,-4.529635608E-1,-4.318985462E0,-8.104696274E-1
8.308627193E0,-4.393852651E-1,-4.282453060E0,-8.295712471E-1
8.313449121E0,-4.408656061E-1,-4.271697998E0,-8.418807983E-1
8.318271100E0,-4.165961444E-1,-4.224487305E0,-8.606033325E-1
8.323093027E0,-4.261535108E-1,-4.169500351E0,-8.714246750E-1
8.327914954E0,-4.251347780E-1,-4.164042950E0,-8.791656494E-1
8.332736933E0,-4.360286593E-1,-4.129121780E0,-8.946161270E-1
8.337558860E0,-4.371678829E-1,-4.099332333E0,-8.962936401E-1
8.342380787E0,-4.163984060E-1,-4.048353672E0,-8.973422050E-1
8.347202766E0,-4.069753885E-1,-4.027562141E0,-9.013242722E-1
8.352024693E0,-4.003454447E-1,-3.995072603E0,-9.010286331E-1
8.356846673E0,-3.879158199E-1,-3.962796211E0,-8.964309692E-1
8.361668600E0,-3.898929358E-1,-3.923552513E0,-8.874654770E-1
8.366490527E0,-3.713983893E-1,-3.891616106E0,-8.944168091E-1
8.371312506E0,-3.645288944E-1,-3.858680487E0,-8.729119301E-1
8.376134433E0,-3.668037653E-1,-3.839003563E0,-8.599758148E-1
8.380956360E0,-3.612810969E-1,-3.795564651E0,-8.279762268E-1
8.385778339E0,-3.634413183E-1,-3.770246983E0,-8.006896973E-1
8.390600266E0,-3.469249308E-1,-3.739127159E0,-7.720046043E-1
8.395422193E0,-3.534518182E-1,-3.699854136E0,-7.345933914E-1
8.400244173E0,-3.519237041E-1,-3.672781467E0,-6.703758240E-1
8.405066100E0,-3.411858082E-1,-3.647171021E0,-6.114749908E-1
8.409888027E0,-3.319373131E-1,-3.589694977E0,-5.480909348E-1
8.414710006E0,-3.337998986E-1,-3.578019142E0,-4.657516479E-1
8.419531933E0,-3.373157382E-1,-3.538189411E0,-3.821344376E-1
8.424353912E0,-3.222640753E-1,-3.513241529E0,-3.054494858E-1
8.429175839E0,-3.270304501E-1,-3.467518806E0,-1.876163483E-1
8.433997766E0,-3.255265951E-1,-3.420273781E0,-1.037511826E-1
8.438819746E0,-3.346391618E-1,-3.393168449E0,3.774642944E-3
8.443641673E0,-3.235262632E-1,-3.348089457E0,1.255922318E-1
8.448463600E0,-3.282557428E-1,-3.304353237E0,2.451753616E-1
8.453285579E0,-3.311949968E-1,-3.275312901E0,3.555812836E-1
8.458107506E0,-3.374031186E-1,-3.224155426E0,4.630193710E-1
8.462929433E0,-3.364467621E-1,-3.183382988E0,5.891952515E-1
8.467751412E0,-3.405151367E-1,-3.130579233E0,7.115859985E-1
8.472573339E0,-3.344288766E-1,-3.091014862E0,8.219709396E-1
8.477395318E0,-3.411859870E-1,-3.034014463E0,9.432764053E-1
8.482217246E0,-3.240189552E-1,-2.989718676E0,1.067247391E0
8.487039173E0,-3.440735936E-1,-2.932154655E0,1.176096916E0
8.491861152E0,-3.454400897E-1,-2.869940996E0,1.298610687E0
8.496683079E0,-3.415140510E-1,-2.809419870E0,1.412172318E0
8.501505006E0,-3.217101097E-1,-2.744894505E0,1.513274193E0
8.506326985E0,-3.220685720E-1,-2.673095942E0,1.633055687E0
8.511148912E0,-3.342849314E-1,-2.600410461E0,1.752434731E0
8.515970839E0,-3.308668137E-1,-2.524781466E0,1.843956947E0
8.520792818E0,-3.345767856E-1,-2.452424288E0,1.951862335E0
8.525614746E0,-3.227527142E-1,-2.394373417E0,2.048636436E0
8.530436673E0,-3.107084036E-1,-2.299594879E0,2.151020050E0
8.535258652E0,-2.948496938E-1,-2.220979214E0,2.252991676E0
8.540080579E0,-3.060550690E-1,-2.125331402E0,2.354510307E0
8.544902506E0,-2.926194072E-1,-2.030792236E0,2.437589645E0
8.549724485E0,-2.831135690E-1,-1.955604553E0,2.523700714E0
8.554546412E0,-2.784008384E-1,-1.847378731E0,2.613959312E0
8.559368391E0,-2.673946619E-1,-1.758876085E0,2.686756134E0
8.564190318E0,-2.462071627E-1,-1.659281015E0,2.761149406E0
8.569012246E0,-2.336159348E-1,-1.571466923E0,2.831058502E0
8.573834225E0,-2.256658226E-1,-1.463293552E0,2.898773193E0
8.578656152E0,-2.052653134E-1,-1.365934968E0,2.954625130E0
8.583478079E0,-2.056038231E-1,-1.262739062E0,3.003297806E0
8.588300058E0,-1.856551170E-1,-1.159816742E0,3.049467087E0
8.593121985E0,-1.654901654E-1,-1.027312636E0,3.077490807E0
8.597943912E0,-1.590915918E-1,-9.621039033E-1,3.107598305E0
8.602765891E0,-1.483523399E-1,-8.421314955E-1,3.132511139E0
8.607587818E0,-1.402238011E-1,-7.248722315E-1,3.153332710E0
8.612409746E0,-1.249358803E-1,-6.186184883E-1,3.183120728E0
8.617231725E0,-1.203464121E-1,-5.101419687E-1,3.177567482E0
8.622053652E0,-1.192236990E-1,-3.981399536E-1,3.177268982E0
8.626875631E0,-8.573080599E-2,-2.956728339E-1,3.170205116E0
8.631697558E0,-7.002028823E-2,-1.715177298E-1,3.161105156E0
8.636519485E0,-6.503225863E-2,-7.093292475E-2,3.147537231E0
8.641341464E0,-5.547177792E-2,4.334545135E-2,3.147391319E0
8.646163391E0,-4.505303502E-2,1.547573805E-1,3.121187210E0
8.650985318E0,-5.671536922E-2,2.766419649E-1,3.086853981E0
8.655807298E0,-3.456383944E-2,3.829474449E-1,3.057531357E0
8.660629225E0,-4.101452231E-2,4.822773337E-1,3.037979126E0
8.665451152E0,-1.795297861E-2,6.083294153E-1,3.003077507E0
8.670273131E0,-3.260093927E-2,7.243516445E-1,2.961213112E0
8.675095058E0,-1.358783245E-2,8.460760713E-1,2.915965080E0
8.679916985E0,-1.154172421E-2,9.606746435E-1,2.863757133E0
8.684738964E0,-1.365417242E-2,1.061231375E0,2.805790901E0
8.689560891E0,-1.914197206E-2,1.185157061E0,2.743276596E0
8.694382871E0,-1.278287172E-2,1.287232041E0,2.657101631E0
8.699204798E0,-1.880252361E-2,1.410814881E0,2.571204185E0
8.704026725E0,8.037626743E-3,1.517875671E0,2.487989426E0
8.708848704E0,1.349425316E-2,1.642179608E0,2.391930580E0
8.713670631E0,1.664239168E-2,1.756478310E0,2.280681610E0
8.718492558E0,1.609826088E-2,1.862165570E0,2.184155464E0
8.723314537E0,2.368831635E-2,1.952455521E0,2.068931580E0
8.728136464E0,1.788508892E-2,2.071715593E0,1.952991486E0
8.732958391E0,3.097730875E-2,2.157988310E0,1.843561172E0
8.737780371E0,2.838456631E-2,2.270102978E0,1.716805458E0
8.742602298E0,4.479217529E-2,2.343672276E0,1.611048698E0
8.747424225E0,6.839442253E-2,2.457680225E0,1.501228333E0
8.752246204E0,5.994588137E-2,2.547769785E0,1.400593758E0
8.757068131E0,8.662831783E-2,2.630795956E0,1.296072960E0
8.761890110E0,9.364676476E-2,2.711661577E0,1.197319984E0
8.766712037E0,1.028849781E-1,2.799959421E0,1.118759155E0
8.771533964E0,1.265075207E-1,2.883927345E0,1.036583900E0
8.776355943E0,1.350004673E-1,2.950340748E0,9.640169144E-1
8.781177871E0,1.513805389E-1,3.020736933E0,8.999404907E-1
8.785999798E0,1.652663350E-1,3.099953175E0,8.360929489E-1
8.790821777E0,1.649261713E-1,3.153235912E0,7.809047699E-1
8.795643704E0,1.770641506E-1,3.240361929E0,7.500000000E-1
8.800465631E0,1.684008241E-1,3.296732903E0,7.028036118E-1
8.805287610E0,1.930188835E-1,3.344897270E0,6.561098099E-1
8.810109537E0,2.057177722E-1,3.393191338E0,6.338977814E-1
8.814931516E0,2.031601369E-1,3.443789482E0,6.051034927E-1
8.819753443E0,2.201952636E-1,3.494237423E0,5.996770859E-1
8.824575371E0,2.305428088E-1,3.552681684E0,5.901212692E-1
8.829397350E0,2.414977551E-1,3.597460747E0,5.860395432E-1
8.834219277E0,2.328270078E-1,3.635559082E0,5.886335373E-1
8.839041204E0,2.320521027E-1,3.681067467E0,5.907096863E-1
8.843863183E0,2.439117581E-1,3.720678568E0,6.293268204E-1
8.848685110E0,2.467425466E-1,3.772036791E0,6.661520004E-1
8.853507037E0,2.524731457E-1,3.801448584E0,6.951866150E-1
8.858329016E0,2.621280849E-1,3.854181528E0,7.415142059E-1
8.863150943E0,2.539981604E-1,3.897574186E0,7.954349518E-1
8.867972871E0,2.422866225E-1,3.927879572E0,8.521146774E-1
8.872794850E0,2.483408749E-1,3.965164423E0,9.150390625E-1
8.877616777E0,2.431797981E-1,4.004375458E0,1.000813484E0
8.882438704E0,2.480859160E-1,4.046412468E0,1.075804710E0
8.887260683E0,2.425354421E-1,4.104247093E0,1.148295403E0
8.892082610E0,2.418349385E-1,4.123839855E0,1.244421005E0
8.896904589E0,2.313333154E-1,4.175436974E0,1.324520111E0
8.901726516E0,2.204311490E-1,4.209798813E0,1.417132378E0
8.906548443E0,2.111916542E-1,4.242256641E0,1.485000610E0
8.911370423E0,2.202392220E-1,4.263022423E0,1.555445671E0
8.916192350E0,2.066574693E-1,4.297027111E0,1.639024734E0
8.921014277E0,2.098064423E-1,4.357187271E0,1.700859070E0
8.925836256E0,2.091594636E-1,4.389450550E0,1.747887611E0
8.930658183E0,2.154157162E-1,4.426012993E0,1.809838295E0
8.935480110E0,1.985388100E-1,4.451199532E0,1.847057343E0
8.940302089E0,1.907691956E-1,4.494699001E0,1.897574425E0
8.945124016E0,1.896905303E-1,4.538438797E0,1.927715302E0
8.949945996E0,1.856251657E-1,4.573947906E0,1.954040527E0
8.954767923E0,1.930267215E-1,4.597527504E0,1.983530998E0
8.959589850E0,2.011614740E-1,4.629381180E0,2.006420135E0
8.964411777E0,2.087685168E-1,4.662263870E0,2.027326584E0
8.969233756E0,1.813624501E-1,4.696084023E0,2.061620712E0
8.974055683E0,1.883384287E-1,4.730791569E0,2.069710732E0
8.978877662E0,1.975156665E-1,4.756732941E0,2.092085838E0
8.983699589E0,1.875039041E-1,4.785806656E0,2.116638660E0
8.988521516E0,1.918481588E-1,4.804840088E0,2.130108833E0
8.993343496E0,1.809236705E-1,4.823283195E0,2.162219048E0
8.998165423E0,1.775146425E-1,4.832770348E0,2.184181690E0
9.002987350E0,1.770411730E-1,4.847567081E0,2.212610245E0
9.007809329E0,1.796078086E-1,4.855755806E0,2.241483688E0
9.012631256E0,1.746667027E-1,4.865636826E0,2.258751869E0
9.017453183E0,1.731364131E-1,4.874767303E0,2.278681278E0
9.022275162E0,1.620146036E-1,4.886744499E0,2.279736042E0
9.027097089E0,1.737719178E-1,4.876455307E0,2.284605980E0
9.031919016E0,1.631080210E-1,4.863025188E0,2.300426006E0
9.036740996E0,1.696779728E-1,4.849985123E0,2.296065807E0
9.041562923E0,1.637772620E-1,4.842144966E0,2.277561188E0
9.046384902E0,1.682766974E-1,4.854996681E0,2.277175426E0
9.051206829E0,1.725233495E-1,4.814497948E0,2.253149509E0
9.056028756E0,1.730529666E-1,4.795890808E0,2.232946873E0
9.060850735E0,1.831069440E-1,4.776552677E0,2.203552246E0
9.065672662E0,1.765177101E-1,4.734958649E0,2.166217327E0
9.070494589E0,1.713662744E-1,4.711790085E0,2.123432636E0
9.075316568E0,1.557110846E-1,4.691503525E0,2.084847450E0
9.080138496E0,1.619046330E-1,4.651398659E0,2.054132938E0
9.084960475E0,1.636806428E-1,4.630995750E0,2.014692783E0
9.089782402E0,1.777834594E-1,4.594436169E0,1.978596687E0
9.094604329E0,1.635998040E-1,4.552552223E0,1.937625885E0
9.099426308E0,1.725009978E-1,4.498186111E0,1.913413048E0
9.104248235E0,1.757583022E-1,4.433764935E0,1.888148308E0
9.109070162E0,1.829242557E-1,4.392868042E0,1.863231659E0
9.113892141E0,1.722992659E-1,4.338468552E0,1.855539322E0
9.118714068E0,1.869255006E-1,4.279037476E0,1.840147972E0
9.123535996E0,1.847602576E-1,4.224183083E0,1.813637733E0
9.128357975E0,1.632798016E-1,4.168031693E0,1.804893494E0
9.133179902E0,1.475428343E-1,4.121434212E0,1.778235435E0
9.138001829E0,1.503772736E-1,4.055850029E0,1.768547058E0
9.142823808E0,1.513984203E-1,3.988070011E0,1.741301537E0
9.147645735E0,1.562682986E-1,3.935036898E0,1.714673042E0
9.152467662E0,1.325170696E-1,3.889647007E0,1.675670624E0
9.157289641E0,1.325463951E-1,3.815143824E0,1.643693924E0
9.162111568E0,1.166296601E-1,3.782126427E0,1.597342491E0
9.166933496E0,1.264238358E-1,3.702346802E0,1.554761887E0
9.171755475E0,1.293402314E-1,3.639394760E0,1.501778603E0
9.176577402E0,1.228956580E-1,3.576740980E0,1.443361282E0
9.181399381E0,1.151914001E-1,3.527725458E0,1.402363777E0
9.186221308E0,9.645146132E-2,3.477085829E0,1.323973656E0
9.191043235E0,8.454534411E-2,3.415423632E0,1.266899109E0
9.195865214E0,7.446232438E-2,3.351386070E0,1.216915131E0
9.200687141E0,6.847780943E-2,3.291201830E0,1.158600807E0
9.205509068E0,5.568632483E-2,3.245868921E0,1.112387657E0
9.210331048E0,4.208993912E-2,3.182179451E0,1.046111107E0
9.215152975E0,3.365188837E-2,3.129062414E0,9.933328629E-1
9.219974902E0,2.663862705E-2,3.069628954E0,9.438009262E-1
9.224796881E0,2.485948801E-2,2.978884935E0,8.930187225E-1
9.229618808E0,1.998674870E-2,2.910660982E0,8.540658951E-1
9.234440787E0,1.462629437E-2,2.835416555E0,8.031730652E-1
9.239262714E0,2.967923880E-3,2.764129639E0,7.618160248E-1
9.244084641E0,-5.233585835E-3,2.686363459E0,7.275609970E-1
9.248906568E0,-1.460057497E-2,2.622511387E0,7.003288269E-1
9.253728548E0,-2.476501465E-2,2.551331997E0,6.693801880E-1
9.258550475E0,-2.127209306E-2,2.479059935E0,6.311626434E-1
9.263372454E0,-1.464349031E-2,2.415317535E0,6.367044449E-1
9.268194381E0,-6.896883249E-3,2.323473215E0,6.144180298E-1
9.273016308E0,-2.394518256E-2,2.266831160E0,5.870189667E-1
9.277838287E0,-2.248862386E-2,2.209585667E0,5.758323669E-1
9.282660214E0,-1.551222801E-2,2.117491484E0,5.794677734E-1
9.287482141E0,-1.458784938E-2,2.062109470E0,5.834789276E-1
9.292304121E0,-1.229718328E-2,1.992088079E0,5.972537994E-1
9.297126048E0,-1.077023149E-2,1.926755548E0,6.064100266E-1
9.301947975E0,-1.337304711E-2,1.841062784E0,6.476526260E-1
9.306769954E0,1.523077488E-3,1.760198236E0,6.897897720E-1
9.311591881E0,-5.306810141E-3,1.679363966E0,7.315311432E-1
9.316413808E0,-2.578496933E-4,1.605593204E0,7.882108688E-1
9.321235787E0,1.773159206E-2,1.506744862E0,8.596181870E-1
9.326057714E0,2.287000418E-3,1.430411577E0,9.313077927E-1
9.330879693E0,2.364903688E-3,1.333601236E0,1.009134293E0
9.335701621E0,9.423375130E-3,1.244881630E0,1.090601921E0
9.340523548E0,1.380577683E-2,1.156882524E0,1.155442238E0
9.345345527E0,-3.633618355E-3,1.064787030E0,1.253562927E0
9.350167454E0,-6.145685911E-3,9.636702538E-1,1.356155396E0
9.354989381E0,-2.432763577E-3,8.486599922E-1,1.454820633E0
9.359811360E0,-9.314268827E-3,7.493318319E-1,1.555478096E0
9.364633287E0,-1.772814989E-2,6.605612040E-1,1.675885201E0
9.369455214E0,-2.791956067E-2,5.696542263E-1,1.783331871E0
9.374277193E0,-3.426560760E-2,4.535852969E-1,1.899310112E0
9.379099121E0,-4.425102472E-2,3.587803543E-1,2.014220238E0
9.383921048E0,-5.102804303E-2,2.491171360E-1,2.125650406E0
9.388743027E0,-7.051923871E-2,1.243617684E-1,2.229992867E0
9.393564954E0,-8.146750927E-2,2.007074654E-2,2.328437805E0
9.398386933E0,-7.938617468E-2,-9.267024696E-2,2.417393684E0
9.403208860E0,-9.325167537E-2,-2.093944550E-1,2.505225182E0
9.408030787E0,-1.126018763E-1,-3.279166222E-1,2.605073929E0
9.412852766E0,-1.099626720E-1,-4.330267906E-1,2.677506447E0
9.417674693E0,-1.261981428E-1,-5.644559860E-1,2.760807037E0
9.422496621E0,-1.327110827E-1,-6.757773161E-1,2.822717667E0
9.427318600E0,-1.451355219E-1,-8.006945848E-1,2.875244141E0
9.432140527E0,-1.454558372E-1,-9.191458225E-1,2.914859772E0
9.436962454E0,-1.527756155E-1,-1.046864390E0,2.948796272E0
9.441784433E0,-1.562438607E-1,-1.162537098E0,2.962783813E0
9.446606360E0,-1.581033766E-1,-1.269905806E0,2.989171982E0
9.451428287E0,-1.652778089E-1,-1.406275392E0,2.992182732E0
9.456250266E0,-1.596735716E-1,-1.526273727E0,3.014935493E0
9.461072193E0,-1.600778401E-1,-1.651612520E0,3.008508682E0
9.465894173E0,-1.590805650E-1,-1.769271255E0,2.998124123E0
9.470716100E0,-1.563475132E-1,-1.879305363E0,2.991052628E0
9.475538027E0,-1.432507932E-1,-2.000894070E0,2.969459534E0
9.480360006E0,-1.505142748E-1,-2.124466896E0,2.944213867E0
9.485181933E0,-1.395309865E-1,-2.233409166E0,2.915433884E0
9.490003860E0,-1.183357835E-1,-2.355147839E0,2.891577721E0
9.494825839E0,-1.165458858E-1,-2.451467276E0,2.847654343E0
9.499647766E0,-1.122857630E-1,-2.572505474E0,2.822016716E0
9.504469693E0,-1.245276034E-1,-2.675120354E0,2.771716118E0
9.509291673E0,-9.201848507E-2,-2.790300369E0,2.704035759E0
9.514113600E0,-8.865296841E-2,-2.883270741E0,2.645377159E0
9.518935527E0,-8.921299875E-2,-3.001740456E0,2.582662582E0
9.523757506E0,-6.247431040E-2,-3.083375692E0,2.500434875E0
9.528579433E0,-4.660251737E-2,-3.190173626E0,2.439414024E0
9.533401360E0,-4.046708345E-2,-3.286016464E0,2.357789993E0
9.538223339E0,-3.445720673E-2,-3.379041910E0,2.283114433E0
9.543045266E0,-1.069286466E-2,-3.464281797E0,2.192715645E0
9.547867246E0,-6.379842758E-3,-3.541535854E0,2.109350204E0
9.552689173E0,-4.916936159E-3,-3.634339333E0,2.028206825E0
9.557511100E0,1.623931527E-2,-3.697152615E0,1.967241287E0
9.562333079E0,3.056728840E-2,-3.785734653E0,1.883345604E0
9.567155006E0,2.232596278E-2,-3.877168179E0,1.819558144E0
9.571976933E0,4.377126694E-2,-3.947275639E0,1.741146088E0
9.576798912E0,3.368884325E-2,-4.012438774E0,1.694629669E0
9.581620839E0,3.731268644E-2,-4.059319019E0,1.632117271E0
9.586442766E0,6.021887064E-2,-4.118659973E0,1.567834854E0
9.591264746E0,6.384998560E-2,-4.179432869E0,1.498084068E0
9.596086673E0,5.043411255E-2,-4.207822800E0,1.437045097E0
9.600908652E0,4.839181900E-2,-4.265888214E0,1.364299774E0
9.605730579E0,3.710737824E-2,-4.312514305E0,1.293952942E0
9.610552506E0,4.747736454E-2,-4.355915070E0,1.215104103E0
9.615374485E0,5.295866728E-2,-4.385074615E0,1.125168800E0
9.620196412E0,4.023602605E-2,-4.416489601E0,1.021561623E0
9.625018339E0,4.871237278E-2,-4.441608906E0,9.184551239E-1
9.629840318E0,5.425456166E-2,-4.476936817E0,8.371229172E-1
9.634662246E0,5.447575450E-2,-4.513884544E0,7.486410141E-1
9.639484173E0,5.651095510E-2,-4.541542530E0,6.528110504E-1
9.644306152E0,6.036967039E-2,-4.557412624E0,5.566253662E-1
9.649128079E0,6.958955526E-2,-4.567278862E0,4.550580978E-1
9.653950006E0,5.798041821E-2,-4.596184254E0,3.718528748E-1
9.658771985E0,5.192774534E-2,-4.612893105E0,2.852611542E-1
9.663593912E0,6.468921900E-2,-4.625634193E0,2.058210373E-1
9.668415839E0,6.286045909E-2,-4.649874210E0,1.249799728E-1
9.673237818E0,6.579238176E-2,-4.661691189E0,5.694866180E-2
9.678059746E0,7.355442643E-2,-4.663338184E0,-2.958965302E-2
9.682881673E0,7.917496562E-2,-4.665530682E0,-8.697032928E-2
9.687703652E0,8.163315058E-2,-4.689870834E0,-1.571092606E-1
9.692525579E0,8.347010612E-2,-4.697918892E0,-2.246942520E-1
9.697347558E0,9.208232164E-2,-4.690947533E0,-2.790441513E-1
9.702169485E0,1.028864384E-1,-4.698806763E0,-3.358478546E-1
9.706991412E0,1.088378727E-1,-4.709498882E0,-3.904466629E-1
9.711813391E0,1.114045680E-1,-4.715899467E0,-4.369258881E-1
9.716635318E0,1.190454066E-1,-4.720355034E0,-4.694480896E-1
9.721457246E0,1.271659136E-1,-4.728900433E0,-5.143589973E-1
9.726279225E0,1.371534765E-1,-4.722405434E0,-5.525989532E-1
9.731101152E0,1.503148824E-1,-4.727178097E0,-5.770750046E-1
9.735923079E0,1.560437083E-1,-4.730126858E0,-6.009535789E-1
9.740745058E0,1.604309529E-1,-4.744437218E0,-6.170835495E-1
9.745566985E0,1.635823995E-1,-4.730637550E0,-6.350913048E-1
9.750388964E0,1.740221083E-1,-4.743840218E0,-6.525259018E-1
9.755210891E0,1.774362624E-1,-4.752945423E0,-6.658225060E-1
9.760032818E0,1.762669683E-1,-4.747225761E0,-6.630311012E-1
9.764854798E0,1.992413402E-1,-4.756645203E0,-6.656246185E-1
9.769676725E0,1.985965222E-1,-4.760940552E0,-6.699438095E-1
9.774498652E0,2.030417472E-1,-4.769707680E0,-6.807284355E-1
9.779320631E0,2.125646174E-1,-4.772279739E0,-6.691927910E-1
9.784142558E0,2.043465525E-1,-4.771068573E0,-6.723661423E-1
9.788964485E0,2.011035979E-1,-4.768615723E0,-6.566166878E-1
9.793786464E0,2.087509334E-1,-4.760144234E0,-6.362581253E-1
9.798608391E0,2.164057344E-1,-4.767243385E0,-6.279177666E-1
9.803430318E0,2.073281705E-1,-4.768513203E0,-6.123075485E-1
9.808252298E0,2.266658247E-1,-4.767483711E0,-5.846443176E-1
9.813074225E0,2.134602070E-1,-4.776386261E0,-5.566196442E-1
9.817896152E0,2.177592367E-1,-4.761781216E0,-5.162000656E-1
9.822718131E0,2.106929123E-1,-4.746441841E0,-4.943723679E-1
9.827540058E0,2.183733582E-1,-4.760377884E0,-4.574966431E-1
9.832361985E0,2.155544162E-1,-4.751070023E0,-4.257707596E-1
9.837183964E0,2.175973952E-1,-4.740228653E0,-3.882517815E-1
9.842005891E0,2.194654346E-1,-4.733816147E0,-3.401222229E-1
9.846827871E0,2.150496542E-1,-4.730895519E0,-2.835454941E-1
9.851649798E0,2.077440917E-1,-4.729071140E0,-2.435722351E-1
9.856471725E0,2.092974186E-1,-4.708250046E0,-1.889190674E-1
