"Time (s)","Acceleration x (m/s^2)","Acceleration y (m/s^2)","Acceleration z (m/s^2)"
1.918218800E-2,-1.818545163E-1,-6.979863644E0,6.965506554E0
2.159317700E-2,-1.483550072E-1,-6.987041950E0,6.955935478E0
2.400411500E-2,-9.571290761E-2,-6.999006271E0,6.951149940E0
2.641505200E-2,-6.699903309E-2,-7.006184578E0,6.936792850E0
2.882599000E-2,-5.024927482E-2,-6.991827965E0,6.924828529E0
3.123692700E-2,-5.982056633E-2,-6.999006271E0,6.932007313E0
3.364786500E-2,-9.092725813E-2,-6.994220734E0,6.934400082E0
3.605880200E-2,-1.052841991E-1,-6.975078106E0,6.941578388E0
3.846974000E-2,-1.411765367E-1,-6.960721016E0,6.943971157E0
4.088067700E-2,-1.459621787E-1,-6.946363926E0,6.965506554E0
4.329161500E-2,-1.627119333E-1,-6.948757172E0,6.963113785E0
4.570255200E-2,-1.746760458E-1,-6.953542709E0,6.963113785E0
4.811349000E-2,-1.531406492E-1,-6.946363926E0,6.953542709E0
5.052447900E-2,-1.435693651E-1,-6.948757172E0,6.953542709E0
5.293541700E-2,-1.411765367E-1,-6.946363926E0,6.939185619E0
5.534635400E-2,-1.339980662E-1,-6.939185619E0,6.929614544E0
5.775729200E-2,-1.244267747E-1,-6.929614544E0,6.927221775E0
6.016822900E-2,-1.196411327E-1,-6.934400082E0,6.927221775E0
6.257916700E-2,-1.363908947E-1,-6.924828529E0,6.924828529E0
6.499010400E-2,-1.387837082E-1,-6.910471916E0,6.922435760E0
6.740104200E-2,-1.387837082E-1,-6.912864685E0,6.917650223E0
6.981197900E-2,-1.292124242E-1,-6.939185619E0,6.915257454E0
7.222291700E-2,-1.028913707E-1,-6.941578388E0,6.922435760E0
7.463385400E-2,-1.004985496E-1,-6.936792850E0,6.951149940E0
7.704479200E-2,-8.135596663E-2,-6.953542709E0,6.979863644E0
7.945572900E-2,-6.939185411E-2,-6.946363926E0,6.999006271E0
8.186666700E-2,-7.178468257E-2,-6.960721016E0,7.020541668E0
8.427760400E-2,-1.028913707E-1,-6.955935478E0,7.025327206E0
8.668859400E-2,-1.268195957E-1,-6.970292568E0,7.022934437E0
8.909953200E-2,-1.292124242E-1,-6.967899323E0,7.034898758E0
9.151046900E-2,-1.268195957E-1,-6.982256413E0,7.056434155E0
9.392140700E-2,-1.387837082E-1,-6.982256413E0,7.070790768E0
9.633234400E-2,-1.292124242E-1,-6.984649181E0,7.077969551E0
9.874328200E-2,-1.148554832E-1,-6.989434719E0,7.092326164E0
1.011542190E-1,-1.148554832E-1,-6.984649181E0,7.082755089E0
1.035651570E-1,-1.052841991E-1,-6.970292568E0,7.068397999E0
1.059760940E-1,-1.124626622E-1,-6.970292568E0,7.063612461E0
1.083870320E-1,-1.220339537E-1,-6.960721016E0,7.058826923E0
1.107979690E-1,-1.052841991E-1,-6.943971157E0,7.054041386E0
1.132089070E-1,-1.196411327E-1,-6.934400082E0,7.037291527E0
1.156198960E-1,-1.244267747E-1,-6.927221775E0,7.037291527E0
1.180308340E-1,-1.100698411E-1,-6.922435760E0,7.022934437E0
1.204417710E-1,-1.052841991E-1,-6.912864685E0,7.006184578E0
1.228527090E-1,-9.810572863E-2,-6.884150982E0,7.001399040E0
1.252636460E-1,-9.332008660E-2,-6.865008354E0,6.989434719E0
1.276745840E-1,-8.614161611E-2,-6.872186661E0,6.965506554E0
1.300855210E-1,-8.374879509E-2,-6.879364967E0,6.953542709E0
1.324964590E-1,-9.332008660E-2,-6.869793892E0,6.943971157E0
1.349073960E-1,-9.092725813E-2,-6.872186661E0,6.943971157E0
1.373183340E-1,-9.332008660E-2,-6.876972198E0,6.955935478E0
1.397292710E-1,-1.004985496E-1,-6.874579430E0,6.963113785E0
1.421402090E-1,-1.148554832E-1,-6.884150982E0,6.960721016E0
1.445511460E-1,-1.076770201E-1,-6.876972198E0,6.953542709E0
1.469621360E-1,-1.004985496E-1,-6.881757736E0,6.948757172E0
1.493730210E-1,-1.124626622E-1,-6.872186661E0,6.948757172E0
1.517840110E-1,-9.810572863E-2,-6.865008354E0,6.965506554E0
1.541949480E-1,-9.810572863E-2,-6.867401123E0,6.970292568E0
1.566058860E-1,-8.853443712E-2,-6.867401123E0,6.970292568E0
1.590168230E-1,-1.004985496E-1,-6.881757736E0,6.984649181E0
1.614277610E-1,-1.052841991E-1,-6.886543751E0,6.989434719E0
1.638386980E-1,-1.172483116E-1,-6.893722057E0,7.010970116E0
1.662496360E-1,-1.387837082E-1,-6.910471916E0,7.020541668E0
1.686605730E-1,-1.579262912E-1,-6.917650223E0,7.037291527E0
1.710715110E-1,-1.674975902E-1,-6.924828529E0,7.063612461E0
1.734824480E-1,-1.651047617E-1,-6.963113785E0,7.097112179E0
1.758933860E-1,-1.387837082E-1,-6.979863644E0,7.121040344E0
1.783043750E-1,-1.507478207E-1,-6.994220734E0,7.128218651E0
1.807153130E-1,-1.292124242E-1,-6.996613503E0,7.144968510E0
1.831262500E-1,-1.411765367E-1,-7.008577347E0,7.137789726E0
1.855371880E-1,-1.579262912E-1,-7.022934437E0,7.113861561E0
1.879481250E-1,-1.555334777E-1,-7.015756130E0,7.121040344E0
1.903590630E-1,-1.507478207E-1,-7.010970116E0,7.106683254E0
1.927700000E-1,-1.459621787E-1,-7.022934437E0,7.089933395E0
1.951809380E-1,-1.603191197E-1,-7.003791809E0,7.068397999E0
1.975918750E-1,-1.411765367E-1,-7.008577347E0,7.070790768E0
2.000028130E-1,-1.459621787E-1,-7.010970116E0,7.058826923E0
2.024137500E-1,-1.363908947E-1,-7.010970116E0,7.054041386E0
2.048246880E-1,-1.387837082E-1,-6.982256413E0,7.044469833E0
2.072356250E-1,-1.316052526E-1,-6.943971157E0,7.030112743E0
2.096465630E-1,-1.292124242E-1,-6.943971157E0,7.018148899E0
2.120575520E-1,-1.316052526E-1,-6.932007313E0,7.032505512E0
2.144684900E-1,-1.555334777E-1,-6.953542709E0,7.025327206E0
2.168794270E-1,-1.579262912E-1,-6.948757172E0,7.022934437E0
2.192903650E-1,-1.842473447E-1,-6.951149940E0,7.015756130E0
2.217013020E-1,-1.914258152E-1,-6.927221775E0,7.013363361E0
2.241122400E-1,-1.770688742E-1,-6.900900364E0,7.008577347E0
2.265231770E-1,-1.866401732E-1,-6.891329288E0,7.001399040E0
2.289341150E-1,-1.914258152E-1,-6.891329288E0,6.999006271E0
2.313450520E-1,-1.794617027E-1,-6.896114826E0,6.999006271E0
2.337559900E-1,-1.938186288E-1,-6.893722057E0,6.991827965E0
2.361669270E-1,-2.129612118E-1,-6.891329288E0,6.991827965E0
2.385778650E-1,-1.986042857E-1,-6.884150982E0,6.989434719E0
2.409888540E-1,-1.866401732E-1,-6.874579430E0,7.006184578E0
2.433997920E-1,-1.962114573E-1,-6.881757736E0,7.003791809E0
2.458107290E-1,-1.842473447E-1,-6.881757736E0,7.015756130E0
2.482216670E-1,-1.483550072E-1,-6.898507595E0,7.025327206E0
2.506326040E-1,-1.387837082E-1,-6.888936520E0,7.032505512E0
2.530435420E-1,-1.555334777E-1,-6.891329288E0,7.006184578E0
2.554544790E-1,-1.507478207E-1,-6.893722057E0,7.006184578E0
2.578654170E-1,-1.196411327E-1,-6.903293133E0,7.008577347E0
2.602763540E-1,-1.028913707E-1,-6.893722057E0,7.006184578E0
2.626872920E-1,-9.092725813E-2,-6.891329288E0,7.010970116E0
2.650982290E-1,-7.657032460E-2,-6.898507595E0,7.018148899E0
2.675091670E-1,-5.982056633E-2,-6.891329288E0,7.025327206E0
2.699201040E-1,-5.264209956E-2,-6.876972198E0,7.027719975E0
2.723310940E-1,-5.264209956E-2,-6.865008354E0,7.049255371E0
2.747420320E-1,-5.024927482E-2,-6.860222340E0,7.068397999E0
2.771529690E-1,-4.307080805E-2,-6.860222340E0,7.068397999E0
2.795639070E-1,-5.024927482E-2,-6.860222340E0,7.075576782E0
2.819748440E-1,-6.460621208E-2,-6.872186661E0,7.068397999E0
2.843857820E-1,-7.178468257E-2,-6.891329288E0,7.058826923E0
2.867967190E-1,-9.092725813E-2,-6.898507595E0,7.058826923E0
2.892076570E-1,-9.332008660E-2,-6.917650223E0,7.044469833E0
2.916185940E-1,-7.896314561E-2,-6.927221775E0,7.037291527E0
2.940295320E-1,-8.374879509E-2,-6.934400082E0,7.018148899E0
2.964404690E-1,-7.657032460E-2,-6.955935478E0,7.008577347E0
2.988514070E-1,-8.374879509E-2,-6.946363926E0,7.001399040E0
3.012623440E-1,-7.417750359E-2,-6.967899323E0,6.999006271E0
3.036733340E-1,-7.178468257E-2,-6.994220734E0,6.999006271E0
3.060842710E-1,-7.657032460E-2,-7.003791809E0,6.982256413E0
3.084952090E-1,-5.742774159E-2,-7.022934437E0,6.987041950E0
3.109061460E-1,-7.178468257E-2,-7.039684296E0,6.991827965E0
3.133170840E-1,-8.374879509E-2,-7.049255371E0,6.989434719E0
3.157280210E-1,-7.178468257E-2,-7.054041386E0,6.984649181E0
3.181389590E-1,-4.546362907E-2,-7.068397999E0,6.987041950E0
3.205498960E-1,-4.785645381E-2,-7.075576782E0,6.972685337E0
3.229608340E-1,-3.589234129E-2,-7.075576782E0,6.975078106E0
3.253717710E-1,-3.589234129E-2,-7.094718933E0,6.972685337E0
3.277827090E-1,-4.307080805E-2,-7.121040344E0,6.967899323E0
3.301936460E-1,-6.939185411E-2,-7.118647575E0,6.960721016E0
3.326045840E-1,-7.896314561E-2,-7.133004189E0,6.965506554E0
3.350155730E-1,-1.004985496E-1,-7.133004189E0,6.975078106E0
3.374265110E-1,-1.172483116E-1,-7.135396957E0,6.989434719E0
3.398374480E-1,-1.339980662E-1,-7.135396957E0,6.975078106E0
3.422483860E-1,-1.435693651E-1,-7.135396957E0,6.982256413E0
3.446593230E-1,-1.555334777E-1,-7.130611420E0,6.977470875E0
3.470702610E-1,-1.698904037E-1,-7.125825882E0,6.979863644E0
3.494811980E-1,-1.746760458E-1,-7.099504948E0,6.965506554E0
3.518921360E-1,-1.698904037E-1,-7.082755089E0,6.965506554E0
3.543030730E-1,-1.962114573E-1,-7.070790768E0,6.977470875E0
3.567140110E-1,-1.938186288E-1,-7.066005230E0,6.982256413E0
3.591249480E-1,-2.033899277E-1,-7.056434155E0,6.991827965E0
3.615358860E-1,-2.129612118E-1,-7.049255371E0,6.994220734E0
3.639468750E-1,-2.105683982E-1,-7.051648140E0,6.987041950E0
3.663578130E-1,-2.153540403E-1,-7.025327206E0,6.991827965E0
3.687687500E-1,-2.153540403E-1,-7.008577347E0,7.013363361E0
3.711796880E-1,-2.081755698E-1,-6.975078106E0,7.013363361E0
3.735906250E-1,-1.914258152E-1,-6.972685337E0,7.022934437E0
3.760015630E-1,-2.009970993E-1,-6.958328247E0,7.018148899E0
3.784125000E-1,-1.866401732E-1,-6.917650223E0,7.010970116E0
3.808234380E-1,-1.746760458E-1,-6.903293133E0,7.008577347E0
3.832343750E-1,-1.555334777E-1,-6.908079147E0,6.982256413E0
3.856453130E-1,-1.363908947E-1,-6.888936520E0,6.979863644E0
3.880562500E-1,-1.196411327E-1,-6.865008354E0,6.970292568E0
3.904671880E-1,-1.076770201E-1,-6.860222340E0,6.970292568E0
3.928781250E-1,-1.100698411E-1,-6.855436802E0,6.960721016E0
3.952890630E-1,-1.316052526E-1,-6.850651264E0,6.963113785E0
3.977000520E-1,-1.387837082E-1,-6.841079712E0,6.967899323E0
4.001109900E-1,-1.244267747E-1,-6.841079712E0,6.984649181E0
4.025219270E-1,-1.603191197E-1,-6.853044033E0,6.963113785E0
4.049328650E-1,-1.866401732E-1,-6.855436802E0,6.960721016E0
4.073438020E-1,-1.818545163E-1,-6.862615108E0,6.943971157E0
4.097547400E-1,-1.674975902E-1,-6.884150982E0,6.953542709E0
4.121656770E-1,-1.555334777E-1,-6.881757736E0,6.967899323E0
4.145766150E-1,-1.483550072E-1,-6.898507595E0,6.977470875E0
4.169875520E-1,-1.435693651E-1,-6.932007313E0,6.987041950E0
4.193984900E-1,-1.339980662E-1,-6.941578388E0,7.001399040E0
4.218094270E-1,-1.603191197E-1,-6.953542709E0,7.032505512E0
4.242203650E-1,-1.890329868E-1,-6.927221775E0,7.077969551E0
4.266313540E-1,-1.962114573E-1,-6.915257454E0,7.092326164E0
4.290422920E-1,-1.890329868E-1,-6.903293133E0,7.109076023E0
4.314532290E-1,-1.890329868E-1,-6.924828529E0,7.137789726E0
4.338641670E-1,-1.507478207E-1,-6.898507595E0,7.147361279E0
4.362751040E-1,-1.316052526E-1,-6.881757736E0,7.161718369E0
4.386860420E-1,-1.244267747E-1,-6.903293133E0,7.173682213E0
4.410969790E-1,-1.052841991E-1,-6.893722057E0,7.164111137E0
4.435079170E-1,-1.100698411E-1,-6.874579430E0,7.137789726E0
4.459188540E-1,-1.459621787E-1,-6.869793892E0,7.121040344E0
4.483297920E-1,-1.770688742E-1,-6.865008354E0,7.092326164E0
4.507407290E-1,-1.746760458E-1,-6.860222340E0,7.082755089E0
4.531516670E-1,-1.698904037E-1,-6.855436802E0,7.061219692E0
4.555626040E-1,-1.627119333E-1,-6.850651264E0,7.027719975E0
4.579735940E-1,-1.603191197E-1,-6.853044033E0,6.994220734E0
4.603845320E-1,-1.483550072E-1,-6.862615108E0,6.977470875E0
4.627954690E-1,-1.555334777E-1,-6.879364967E0,6.975078106E0
4.652064070E-1,-1.555334777E-1,-6.874579430E0,6.951149940E0
4.676173440E-1,-1.339980662E-1,-6.879364967E0,6.936792850E0
4.700282820E-1,-1.076770201E-1,-6.888936520E0,6.929614544E0
4.724392190E-1,-1.004985496E-1,-6.912864685E0,6.920042992E0
4.748501570E-1,-1.028913707E-1,-6.908079147E0,6.941578388E0
4.772610940E-1,-8.374879509E-2,-6.898507595E0,6.922435760E0
4.796720320E-1,-8.135596663E-2,-6.898507595E0,6.917650223E0
4.820829690E-1,-9.571290761E-2,-6.912864685E0,6.927221775E0
4.844939070E-1,-9.571290761E-2,-6.905686378E0,6.929614544E0
4.869048440E-1,-9.810572863E-2,-6.903293133E0,6.934400082E0
4.893158340E-1,-8.135596663E-2,-6.910471916E0,6.922435760E0
4.917267710E-1,-9.332008660E-2,-6.912864685E0,6.939185619E0
4.941377090E-1,-8.853443712E-2,-6.917650223E0,6.953542709E0
4.965486460E-1,-9.810572863E-2,-6.917650223E0,6.958328247E0
4.989595840E-1,-1.052841991E-1,-6.932007313E0,6.965506554E0
5.013705210E-1,-1.028913707E-1,-6.946363926E0,6.987041950E0
5.037814590E-1,-1.148554832E-1,-6.934400082E0,6.999006271E0
5.061923960E-1,-1.244267747E-1,-6.932007313E0,7.018148899E0
5.086033340E-1,-1.483550072E-1,-6.946363926E0,7.018148899E0
5.110142710E-1,-1.722832322E-1,-6.946363926E0,7.032505512E0
5.134252090E-1,-1.938186288E-1,-6.924828529E0,7.046862602E0
5.158361980E-1,-2.009970993E-1,-6.936792850E0,7.066005230E0
5.182471360E-1,-2.057827413E-1,-6.941578388E0,7.085147858E0
5.206580730E-1,-2.105683982E-1,-6.948757172E0,7.101897717E0
5.230690110E-1,-2.033899277E-1,-6.965506554E0,7.118647575E0
5.254799480E-1,-2.009970993E-1,-6.972685337E0,7.123433113E0
5.278908860E-1,-2.153540403E-1,-6.970292568E0,7.125825882E0
5.303018230E-1,-1.914258152E-1,-6.943971157E0,7.133004189E0
5.327127610E-1,-1.890329868E-1,-6.960721016E0,7.152146816E0
5.351236980E-1,-1.842473447E-1,-6.951149940E0,7.135396957E0
5.375346360E-1,-1.770688742E-1,-6.934400082E0,7.109076023E0
5.399455730E-1,-1.914258152E-1,-6.929614544E0,7.101897717E0
5.423565110E-1,-1.698904037E-1,-6.898507595E0,7.082755089E0
5.447674480E-1,-1.698904037E-1,-6.879364967E0,7.058826923E0
5.471784380E-1,-1.866401732E-1,-6.865008354E0,7.049255371E0
5.495893750E-1,-1.842473447E-1,-6.843472958E0,7.061219692E0
5.520003130E-1,-1.890329868E-1,-6.821937561E0,7.034898758E0
5.544112500E-1,-1.746760458E-1,-6.817151546E0,7.010970116E0
5.568221880E-1,-1.794617027E-1,-6.819544315E0,7.001399040E0
5.592331250E-1,-1.603191197E-1,-6.802794933E0,7.003791809E0
5.616440630E-1,-1.507478207E-1,-6.800402164E0,6.994220734E0
5.640550000E-1,-1.339980662E-1,-6.790830612E0,6.989434719E0
5.664659380E-1,-1.220339537E-1,-6.793223381E0,7.006184578E0
5.688768750E-1,-1.100698411E-1,-6.793223381E0,6.996613503E0
5.712878130E-1,-1.172483116E-1,-6.793223381E0,7.003791809E0
5.736987500E-1,-1.124626622E-1,-6.793223381E0,7.010970116E0
5.761096880E-1,-1.220339537E-1,-6.788437843E0,7.020541668E0
5.785206770E-1,-1.435693651E-1,-6.800402164E0,7.020541668E0
5.809316150E-1,-1.316052526E-1,-6.824330330E0,7.020541668E0
5.833425520E-1,-1.411765367E-1,-6.833901405E0,7.022934437E0
5.857534900E-1,-1.268195957E-1,-6.836294174E0,7.006184578E0
5.881644270E-1,-1.124626622E-1,-6.843472958E0,7.008577347E0
5.905753650E-1,-1.148554832E-1,-6.853044033E0,7.003791809E0
5.929863020E-1,-1.196411327E-1,-6.855436802E0,7.006184578E0
5.953972400E-1,-1.196411327E-1,-6.860222340E0,7.001399040E0
5.978081770E-1,-1.268195957E-1,-6.888936520E0,7.008577347E0
6.002191150E-1,-1.244267747E-1,-6.905686378E0,7.008577347E0
6.026300520E-1,-1.411765367E-1,-6.891329288E0,7.022934437E0
6.050409900E-1,-1.411765367E-1,-6.893722057E0,7.025327206E0
6.074519270E-1,-1.507478207E-1,-6.888936520E0,7.013363361E0
6.098629170E-1,-1.651047617E-1,-6.900900364E0,7.001399040E0
6.122738540E-1,-1.627119333E-1,-6.910471916E0,6.996613503E0
6.146847920E-1,-1.842473447E-1,-6.908079147E0,6.970292568E0
6.170957290E-1,-1.962114573E-1,-6.896114826E0,6.963113785E0
6.195066670E-1,-2.129612118E-1,-6.905686378E0,6.946363926E0
6.219176040E-1,-2.081755698E-1,-6.905686378E0,6.929614544E0
6.243285420E-1,-2.249253243E-1,-6.905686378E0,6.929614544E0
6.267394790E-1,-2.249253243E-1,-6.903293133E0,6.927221775E0
6.291504170E-1,-2.297109663E-1,-6.910471916E0,6.924828529E0
6.315613540E-1,-2.225325108E-1,-6.903293133E0,6.946363926E0
6.339722920E-1,-2.009970993E-1,-6.908079147E0,6.955935478E0
6.363832820E-1,-2.009970993E-1,-6.910471916E0,6.955935478E0
6.387941670E-1,-1.890329868E-1,-6.922435760E0,6.958328247E0
6.412051570E-1,-1.866401732E-1,-6.941578388E0,6.979863644E0
6.436160940E-1,-1.746760458E-1,-6.946363926E0,6.984649181E0
6.460270320E-1,-1.603191197E-1,-6.963113785E0,7.001399040E0
6.484379690E-1,-1.531406492E-1,-6.958328247E0,7.001399040E0
6.508489070E-1,-1.459621787E-1,-6.970292568E0,7.010970116E0
6.532598440E-1,-1.459621787E-1,-6.967899323E0,7.025327206E0
6.556707820E-1,-1.459621787E-1,-6.982256413E0,7.039684296E0
6.580817190E-1,-1.387837082E-1,-6.977470875E0,7.039684296E0
6.604926570E-1,-1.172483116E-1,-6.965506554E0,7.039684296E0
6.629035940E-1,-1.196411327E-1,-6.989434719E0,7.032505512E0
6.653145840E-1,-1.124626622E-1,-6.977470875E0,7.027719975E0
6.677255210E-1,-1.196411327E-1,-6.975078106E0,7.013363361E0
6.701364590E-1,-1.148554832E-1,-6.975078106E0,6.987041950E0
6.725473960E-1,-1.220339537E-1,-6.960721016E0,6.979863644E0
6.749583340E-1,-1.148554832E-1,-6.951149940E0,6.977470875E0
6.773692710E-1,-9.092725813E-2,-6.955935478E0,6.972685337E0
6.797802090E-1,-8.853443712E-2,-6.951149940E0,6.967899323E0
6.821911460E-1,-1.028913707E-1,-6.984649181E0,6.965506554E0
6.846020840E-1,-1.196411327E-1,-6.963113785E0,6.958328247E0
6.870130210E-1,-1.268195957E-1,-6.979863644E0,6.967899323E0
6.894239590E-1,-1.316052526E-1,-6.970292568E0,6.982256413E0
6.918348960E-1,-1.674975902E-1,-6.979863644E0,6.984649181E0
6.942458340E-1,-1.770688742E-1,-6.975078106E0,6.967899323E0
6.966568230E-1,-1.866401732E-1,-6.977470875E0,6.970292568E0
6.990677610E-1,-2.057827413E-1,-6.975078106E0,6.958328247E0
7.014786980E-1,-2.321037948E-1,-6.975078106E0,6.948757172E0
7.038896360E-1,-2.297109663E-1,-6.977470875E0,6.932007313E0
7.063005730E-1,-2.177468538E-1,-6.975078106E0,6.924828529E0
7.087115110E-1,-2.177468538E-1,-6.979863644E0,6.915257454E0
7.111224480E-1,-2.081755698E-1,-6.996613503E0,6.917650223E0
7.135333860E-1,-2.081755698E-1,-6.999006271E0,6.900900364E0
7.159443230E-1,-2.081755698E-1,-7.010970116E0,6.886543751E0
7.183552610E-1,-1.986042857E-1,-6.996613503E0,6.876972198E0
7.207661980E-1,-1.962114573E-1,-7.022934437E0,6.876972198E0
7.231771360E-1,-1.890329868E-1,-7.030112743E0,6.884150982E0
7.255881250E-1,-1.890329868E-1,-7.034898758E0,6.891329288E0
7.279990630E-1,-1.794617027E-1,-7.039684296E0,6.891329288E0
7.304100000E-1,-1.770688742E-1,-7.034898758E0,6.900900364E0
7.328209380E-1,-1.459621787E-1,-7.046862602E0,6.917650223E0
7.352318750E-1,-1.507478207E-1,-7.054041386E0,6.936792850E0
7.376428130E-1,-1.339980662E-1,-7.061219692E0,6.927221775E0
7.400537500E-1,-1.292124242E-1,-7.054041386E0,6.955935478E0
7.424646880E-1,-1.411765367E-1,-7.046862602E0,6.975078106E0
7.448756250E-1,-1.363908947E-1,-7.025327206E0,6.972685337E0
7.472865630E-1,-1.579262912E-1,-7.025327206E0,6.991827965E0
7.496975000E-1,-1.746760458E-1,-7.020541668E0,6.999006271E0
7.521084380E-1,-1.842473447E-1,-7.022934437E0,7.001399040E0
7.545194270E-1,-2.009970993E-1,-6.994220734E0,7.006184578E0
7.569303650E-1,-2.009970993E-1,-6.960721016E0,7.015756130E0
7.593413020E-1,-1.890329868E-1,-6.953542709E0,7.030112743E0
7.617522400E-1,-1.818545163E-1,-6.924828529E0,7.042077065E0
7.641631770E-1,-1.794617027E-1,-6.927221775E0,7.034898758E0
7.665741150E-1,-1.794617027E-1,-6.936792850E0,7.054041386E0
7.689850520E-1,-1.842473447E-1,-6.922435760E0,7.063612461E0
7.713959900E-1,-1.842473447E-1,-6.934400082E0,7.087540627E0
7.738069270E-1,-2.009970993E-1,-6.929614544E0,7.104290485E0
7.762178650E-1,-2.033899277E-1,-6.917650223E0,7.113861561E0
7.786288020E-1,-2.009970993E-1,-6.905686378E0,7.121040344E0
7.810397400E-1,-1.962114573E-1,-6.908079147E0,7.133004189E0
7.834507290E-1,-1.794617027E-1,-6.908079147E0,7.147361279E0
7.858616670E-1,-1.746760458E-1,-6.927221775E0,7.121040344E0
7.882726040E-1,-1.627119333E-1,-6.939185619E0,7.089933395E0
7.906835420E-1,-1.698904037E-1,-6.927221775E0,7.089933395E0
7.930944790E-1,-1.962114573E-1,-6.927221775E0,7.082755089E0
7.955054170E-1,-2.129612118E-1,-6.946363926E0,7.058826923E0
7.979163540E-1,-2.129612118E-1,-6.963113785E0,7.025327206E0
8.003272920E-1,-2.177468538E-1,-6.975078106E0,7.018148899E0
8.027382290E-1,-2.009970993E-1,-6.965506554E0,7.006184578E0
8.051491670E-1,-1.914258152E-1,-6.960721016E0,6.984649181E0
8.075601040E-1,-1.770688742E-1,-6.984649181E0,6.975078106E0
8.099710420E-1,-1.651047617E-1,-7.018148899E0,6.965506554E0
8.123820320E-1,-1.483550072E-1,-7.008577347E0,6.965506554E0
8.147929690E-1,-1.459621787E-1,-6.996613503E0,6.970292568E0
8.172039070E-1,-1.459621787E-1,-7.003791809E0,6.963113785E0
8.196148440E-1,-1.651047617E-1,-7.008577347E0,6.958328247E0
8.220257820E-1,-1.794617027E-1,-7.006184578E0,6.965506554E0
8.244367190E-1,-1.794617027E-1,-7.003791809E0,6.939185619E0
8.268476570E-1,-1.746760458E-1,-6.999006271E0,6.920042992E0
8.292585940E-1,-1.770688742E-1,-7.001399040E0,6.920042992E0
8.316695320E-1,-1.555334777E-1,-6.989434719E0,6.924828529E0
8.340804690E-1,-1.531406492E-1,-6.979863644E0,6.903293133E0
8.364914070E-1,-1.339980662E-1,-6.972685337E0,6.893722057E0
8.389023440E-1,-1.339980662E-1,-6.979863644E0,6.896114826E0
8.413133340E-1,-1.316052526E-1,-6.996613503E0,6.886543751E0
8.437242710E-1,-1.148554832E-1,-7.008577347E0,6.896114826E0
8.461352090E-1,-1.220339537E-1,-6.982256413E0,6.896114826E0
8.485461460E-1,-1.172483116E-1,-6.994220734E0,6.903293133E0
8.509570840E-1,-1.076770201E-1,-7.006184578E0,6.920042992E0
8.533680210E-1,-1.052841991E-1,-7.010970116E0,6.939185619E0
8.557789590E-1,-9.332008660E-2,-7.006184578E0,6.941578388E0
8.581898960E-1,-1.100698411E-1,-7.006184578E0,6.970292568E0
8.606008340E-1,-1.244267747E-1,-7.006184578E0,6.979863644E0
8.630117710E-1,-1.220339537E-1,-6.989434719E0,6.982256413E0
8.654227090E-1,-1.100698411E-1,-6.996613503E0,6.970292568E0
8.678336460E-1,-1.076770201E-1,-6.982256413E0,6.977470875E0
8.702446360E-1,-1.148554832E-1,-6.965506554E0,6.991827965E0
8.726555730E-1,-1.244267747E-1,-6.948757172E0,6.991827965E0
8.750665110E-1,-1.052841991E-1,-6.941578388E0,6.989434719E0
8.774774480E-1,-9.810572863E-2,-6.917650223E0,6.994220734E0
8.798883860E-1,-9.810572863E-2,-6.905686378E0,7.001399040E0
8.822993230E-1,-9.810572863E-2,-6.900900364E0,7.003791809E0
8.847102610E-1,-9.571290761E-2,-6.893722057E0,7.015756130E0
8.871211980E-1,-1.100698411E-1,-6.893722057E0,7.027719975E0
8.895321360E-1,-1.076770201E-1,-6.888936520E0,7.039684296E0
8.919430730E-1,-9.332008660E-2,-6.881757736E0,7.039684296E0
8.943540110E-1,-1.052841991E-1,-6.865008354E0,7.042077065E0
8.967650000E-1,-1.292124242E-1,-6.865008354E0,7.051648140E0
8.991759380E-1,-1.316052526E-1,-6.848258495E0,7.061219692E0
9.015868750E-1,-1.651047617E-1,-6.848258495E0,7.073183537E0
9.039978130E-1,-1.698904037E-1,-6.836294174E0,7.044469833E0
9.064087500E-1,-1.459621787E-1,-6.817151546E0,7.022934437E0
9.088196880E-1,-1.435693651E-1,-6.778866768E0,7.018148899E0
9.112306250E-1,-1.531406492E-1,-6.752545357E0,7.030112743E0
9.136415630E-1,-1.674975902E-1,-6.750152588E0,7.032505512E0
9.160525000E-1,-1.674975902E-1,-6.731009960E0,7.054041386E0
9.184634380E-1,-1.986042857E-1,-6.678368092E0,7.142575741E0
9.208743750E-1,-2.440679073E-1,-6.606583118E0,7.326822758E0
9.232853130E-1,-2.297109663E-1,-6.601797581E0,7.355536938E0
9.256962500E-1,-2.344966233E-1,-6.606583118E0,7.338787079E0
9.281072400E-1,-2.440679073E-1,-6.601797581E0,7.334001541E0
9.305181770E-1,-2.392822653E-1,-6.632904530E0,7.338787079E0
9.329291150E-1,-2.560320199E-1,-6.678368092E0,7.329215527E0
9.353400520E-1,-2.727817893E-1,-6.683153629E0,7.326822758E0
9.377509900E-1,-3.278166950E-1,-6.647261143E0,7.331608772E0
9.401619270E-1,-3.565305769E-1,-6.556334019E0,7.338787079E0
9.425728650E-1,-3.852444589E-1,-6.486942291E0,7.415357590E0
9.449838020E-1,-3.517449200E-1,-6.431907177E0,7.441678524E0
9.473947400E-1,-3.230310678E-1,-6.360122681E0,7.446464062E0
9.498056770E-1,-3.086741269E-1,-6.257231236E0,7.479963779E0
9.522166150E-1,-2.799602449E-1,-6.089733601E0,7.532605648E0
9.546276040E-1,-3.541377485E-1,-5.795416355E0,7.590033531E0
9.570385420E-1,-3.230310678E-1,-5.546562672E0,7.671389580E0
9.594494790E-1,-2.081755698E-1,-5.429314613E0,7.712067604E0
9.618604170E-1,-1.914258152E-1,-5.297709465E0,7.714460373E0
9.642713540E-1,-2.392822653E-1,-5.127819061E0,7.721638680E0
9.666822920E-1,-3.038884699E-1,-4.986642361E0,7.692924976E0
9.690932290E-1,-3.110669553E-1,-4.859822750E0,7.664210796E0
9.715041670E-1,-3.349951804E-1,-4.752145767E0,7.635497093E0
9.739151040E-1,-3.661018610E-1,-4.646861553E0,7.580461979E0
9.763260420E-1,-3.589234054E-1,-4.563112736E0,7.527820110E0
9.787369790E-1,-2.967100143E-1,-4.496113777E0,7.434499741E0
9.811479170E-1,-2.392822653E-1,-4.390829563E0,7.448856831E0
9.835589070E-1,-2.464607358E-1,-4.223331928E0,7.640282631E0
9.859698440E-1,-3.589234129E-2,-4.036691666E0,7.922635555E0
9.883807820E-1,2.488535494E-1,-3.675375462E0,8.338987350E0
9.907917190E-1,5.670989752E-1,-3.596412420E0,9.164510727E0
9.932026570E-1,5.934200287E-1,-3.519842148E0,9.626325607E0
9.956135940E-1,5.120640397E-1,-3.428914785E0,9.939785004E0
9.980245320E-1,3.804588020E-1,-3.328416348E0,1.016949654E1
1.000435469E0,2.392822653E-1,-3.237488985E0,1.022453117E1
1.002846407E0,1.052841991E-1,-3.151347399E0,1.016231823E1
1.005257344E0,2.153540403E-2,-3.086741209E0,1.004506969E1
1.007668282E0,-9.092725813E-2,-3.007778168E0,9.920642853E0
1.010079219E0,-1.890329868E-1,-2.938386202E0,9.798608780E0
1.012490209E0,-3.014956415E-1,-2.854637384E0,9.647860527E0
1.014901146E0,-4.091726840E-1,-2.785245657E0,9.480362892E0
1.017312084E0,-4.953143001E-1,-2.718246460E0,9.329615593E0
1.019723021E0,-5.647061467E-1,-2.677568436E0,9.190832138E0
1.022133959E0,-6.317051649E-1,-2.624926329E0,9.035298347E0
1.024544896E0,-6.915257573E-1,-2.577069998E0,8.915657043E0
1.026955834E0,-7.226324677E-1,-2.555534601E0,8.848658562E0
1.029366771E0,-7.393822074E-1,-2.536391973E0,8.841479301E0
1.031777709E0,-7.345965505E-1,-2.519642353E0,8.896514893E0
1.034188646E0,-7.202396393E-1,-2.500499725E0,9.004191399E0
1.036599584E0,-7.154539824E-1,-2.481357098E0,9.200403214E0
1.039010521E0,-7.178468108E-1,-2.464607239E0,9.444471359E0
1.041421511E0,-6.987041831E-1,-2.452643156E0,9.726823807E0
1.043832448E0,-6.867401004E-1,-2.426322222E0,1.005703354E1
1.046243386E0,-6.771687865E-1,-2.419143677E0,1.039920712E1
1.048654323E0,-6.699903607E-1,-2.407179594E0,1.075334454E1
1.051065261E0,-6.604190469E-1,-2.402393818E0,1.107398319E1
1.053476198E0,-6.675975323E-1,-2.383251429E0,1.133719349E1
1.055887136E0,-6.795616150E-1,-2.373680115E0,1.150708389E1
1.058298073E0,-6.987041831E-1,-2.364108801E0,1.158604717E1
1.060709011E0,-7.106683254E-1,-2.340180635E0,1.157647610E1
1.063119948E0,-7.178468108E-1,-2.328216314E0,1.153579807E1
1.065530886E0,-7.369893789E-1,-2.316252232E0,1.149990559E1
1.067941875E0,-7.728816867E-1,-2.301895380E0,1.145444202E1
1.070352813E0,-7.944171429E-1,-2.277967215E0,1.137069321E1
1.072763750E0,-8.207381964E-1,-2.273181438E0,1.129412270E1
1.075174688E0,-8.303094506E-1,-2.256431818E0,1.120558834E1
1.077585625E0,-8.422735929E-1,-2.244467735E0,1.112901783E1
1.079996563E0,-8.542376757E-1,-2.227717876E0,1.102851963E1
1.082407500E0,-8.590233326E-1,-2.227717876E0,1.095434189E1
1.084818438E0,-8.614161611E-1,-2.182254314E0,1.088255692E1
1.087229375E0,-8.638089895E-1,-2.155933142E0,1.077966595E1
1.089640313E0,-8.590233326E-1,-2.139183521E0,1.071266651E1
1.092051250E0,-8.542376757E-1,-2.127219439E0,1.061934662E1
1.094462188E0,-8.638089895E-1,-2.105684042E0,1.053081226E1
1.096873177E0,-8.494520187E-1,-2.079362869E0,1.045902824E1
1.099284115E0,-8.327022791E-1,-2.067398787E0,1.039202881E1
1.101695052E0,-8.350951076E-1,-2.038684845E0,1.030110168E1
1.104105990E0,-8.231309652E-1,-2.031506538E0,1.021256733E1
1.106516927E0,-8.111668825E-1,-2.031506538E0,1.014556789E1
1.108927865E0,-7.896314859E-1,-1.993221283E0,1.007617569E1
1.111338802E0,-7.609176040E-1,-1.947757602E0,1.004028416E1
1.113749740E0,-7.202396393E-1,-1.931007862E0,9.982855797E0
1.116160677E0,-6.987041831E-1,-1.902294040E0,9.927821159E0
1.118571615E0,-6.939185858E-1,-1.871187329E0,9.884750366E0
1.120982552E0,-6.652047038E-1,-1.856830359E0,9.817750931E0
1.123393542E0,-6.293123364E-1,-1.820937991E0,9.760323524E0
1.125804479E0,-5.982056856E-1,-1.797009826E0,9.640682220E0
1.128215417E0,-5.599204898E-1,-1.756331801E0,9.556933403E0
1.130626354E0,-5.192425251E-1,-1.674975872E0,9.521040916E0
1.133037292E0,-4.689932466E-1,-1.600798368E0,9.477970123E0
1.135448229E0,-4.283152521E-1,-1.540977836E0,9.387042999E0
1.137859167E0,-3.900300860E-1,-1.483550072E0,9.351150513E0
1.140270104E0,-3.254238665E-1,-1.428515077E0,9.303294182E0
1.142681042E0,-2.632105052E-1,-1.392622828E0,9.217152596E0
1.145091979E0,-2.081755698E-1,-1.363908887E0,9.099904060E0
1.147502917E0,-1.507478207E-1,-4.792823792E0,3.668197155E0
1.149913907E0,-4.043870270E-1,-4.532006264E0,1.698904037E-1
1.152324844E0,-1.268195957E-1,-1.804188251E0,6.927221775E0
1.154735782E0,-9.571290575E-3,-1.203589797E0,7.781459332E0
1.157146719E0,7.896314561E-2,-8.303094506E-1,9.138189316E0
1.159557657E0,1.292124242E-1,-7.058826685E-1,9.482755661E0
1.161968594E0,1.603191197E-1,-6.747759581E-1,9.343972206E0
1.164379532E0,1.938186288E-1,-6.987041831E-1,9.250652313E0
1.166790469E0,2.321037948E-1,-7.082754970E-1,9.358329773E0
1.169201407E0,2.679961324E-1,-6.891329288E-1,9.363115311E0
1.171612344E0,3.110669553E-1,-6.723831892E-1,9.269794464E0
1.174023282E0,3.541377485E-1,-6.843472719E-1,9.353543282E0
1.176434271E0,3.996013701E-1,-7.010970116E-1,9.559326172E0
1.178845209E0,4.522434771E-1,-6.987041831E-1,9.633503914E0
1.181256146E0,4.809573591E-1,-7.154539824E-1,9.712467194E0
1.183667084E0,5.288137794E-1,-7.226324677E-1,9.942177773E0
1.186078021E0,5.694918036E-1,-7.322037220E-1,1.016710377E1
1.188488959E0,6.053841114E-1,-7.537391186E-1,1.026760197E1
1.190899896E0,6.484549642E-1,-7.513462901E-1,1.044227791E1
1.193310834E0,6.915257573E-1,-7.513462901E-1,1.071745300E1
1.195721771E0,7.322037220E-1,-7.489534616E-1,1.087537861E1
1.198132709E0,7.633104324E-1,-7.465606928E-1,1.102134132E1
1.200543646E0,8.015955687E-1,-7.704889178E-1,1.124626637E1
1.202954584E0,8.327022791E-1,-7.728816867E-1,1.144726372E1
1.205365521E0,8.518448472E-1,-7.824530005E-1,1.152622700E1
1.207776511E0,8.829515576E-1,-7.657032609E-1,1.158604717E1
1.210187448E0,8.829515576E-1,-7.657032609E-1,1.177986622E1
1.212598386E0,8.997012973E-1,-7.704889178E-1,1.188754272E1
1.215009323E0,9.092726111E-1,-7.513462901E-1,1.195693493E1
1.217420261E0,8.973084688E-1,-7.489534616E-1,1.207896900E1
1.219831198E0,9.068797827E-1,-7.537391186E-1,1.222971630E1
1.222242136E0,9.020941257E-1,-7.465606928E-1,1.232064342E1
1.224653073E0,8.829515576E-1,-7.250252366E-1,1.239482117E1
1.227064011E0,8.709874153E-1,-7.178468108E-1,1.250489140E1
1.229474948E0,8.542376757E-1,-7.106683254E-1,1.256949711E1
1.231885886E0,8.111668825E-1,-7.010970116E-1,1.258385468E1
1.234296875E0,7.680960894E-1,-6.723831892E-1,1.264367485E1
1.236707813E0,7.369893789E-1,-6.699903607E-1,1.272024536E1
1.239118750E0,7.130611539E-1,-6.723831892E-1,1.274656582E1
1.241529688E0,6.652047038E-1,-6.484549642E-1,1.276092339E1
1.243940625E0,6.149554253E-1,-6.269195080E-1,1.279920864E1
1.246351563E0,5.670989752E-1,-6.125625968E-1,1.281117249E1
1.248762500E0,5.216353536E-1,-5.982056856E-1,1.279920864E1
1.251173438E0,4.546363056E-1,-5.766702294E-1,1.276570892E1
1.253584375E0,4.163511395E-1,-5.599204898E-1,1.275853062E1
1.255995313E0,3.613162339E-1,-5.264210105E-1,1.272263813E1
1.258406250E0,2.943171859E-1,-5.120640397E-1,1.266281700E1
1.260817188E0,2.273181528E-1,-5.072783828E-1,1.262213898E1
1.263228177E0,1.746760458E-1,-4.905286431E-1,1.257667542E1
1.265639115E0,1.076770201E-1,-4.713860750E-1,1.250489140E1
1.268050052E0,5.982056633E-2,-4.450650215E-1,1.242832088E1
1.270460990E0,2.392822644E-3,-4.402793646E-1,1.238285732E1
1.272871927E0,-5.024927482E-2,-4.259224236E-1,1.233021545E1
1.275282865E0,-1.004985496E-1,-4.043870270E-1,1.228235817E1
1.277693802E0,-1.459621787E-1,-3.828516304E-1,1.222971630E1
1.280104740E0,-1.938186288E-1,-3.541377485E-1,1.218903828E1
1.282515677E0,-2.512463629E-1,-3.206382394E-1,1.213878918E1
1.284926615E0,-3.110669553E-1,-3.182454109E-1,1.209571838E1
1.287337552E0,-3.613162339E-1,-2.943171859E-1,1.207657623E1
1.289748542E0,-3.972085714E-1,-2.823530734E-1,1.204307652E1
1.292159479E0,-4.331009090E-1,-2.464607358E-1,1.199761295E1
1.294570417E0,-4.570291340E-1,-2.416750938E-1,1.198564816E1
1.296981354E0,-4.953143001E-1,-2.321037948E-1,1.198804188E1
1.299392292E0,-5.288137794E-1,-2.057827413E-1,1.198325539E1
1.301803229E0,-5.647061467E-1,-1.938186288E-1,1.199522018E1
1.304214167E0,-5.958128572E-1,-1.698904037E-1,1.200239849E1
1.306625104E0,-6.364908218E-1,-1.603191197E-1,1.202393341E1
1.309036042E0,-6.580262184E-1,-1.316052526E-1,1.205504036E1
1.311446979E0,-6.987041831E-1,-1.196411327E-1,1.209332561E1
1.313857917E0,-7.058826685E-1,-1.100698411E-1,1.211964703E1
1.316268854E0,-7.274180651E-1,-8.374879509E-2,1.216032505E1
1.318679844E0,-7.441678643E-1,-6.460621208E-2,1.220339584E1
1.321090782E0,-7.561319470E-1,-4.546362907E-2,1.223689461E1
1.323501719E0,-7.489534616E-1,-2.153540403E-2,1.227039433E1
1.325912657E0,-7.513462901E-1,1.435693540E-2,1.231585789E1
1.328323594E0,-7.513462901E-1,2.392822690E-2,1.235175037E1
1.330734532E0,-7.537391186E-1,2.392822690E-2,1.238046455E1
1.333145469E0,-7.537391186E-1,5.024927482E-2,1.240199947E1
1.335556407E0,-7.322037220E-1,8.853443712E-2,1.241157150E1
1.337967344E0,-7.106683254E-1,1.004985496E-1,1.243071365E1
1.340378282E0,-6.915257573E-1,1.363908947E-1,1.243549919E1
1.342789271E0,-6.508477330E-1,1.531406492E-1,1.243789196E1
1.345200209E0,-6.340979934E-1,1.698904037E-1,1.243310642E1
1.347611146E0,-6.125625968E-1,1.842473447E-1,1.242353535E1
1.350022084E0,-5.742774606E-1,1.866401732E-1,1.241396427E1
1.352433021E0,-5.240281820E-1,2.081755698E-1,1.240917778E1
1.354843959E0,-4.785645306E-1,2.273181528E-1,1.237807178E1
1.357254896E0,-4.307080805E-1,2.464607358E-1,1.235175037E1
1.359665834E0,-3.804588020E-1,2.632105052E-1,1.232303619E1
1.362076771E0,-3.182454109E-1,2.799602449E-1,1.229432297E1
1.364487709E0,-2.632105052E-1,3.062812984E-1,1.224646664E1
1.366898646E0,-2.153540403E-1,3.230310678E-1,1.221057415E1
1.369309584E0,-1.411765367E-1,3.397808075E-1,1.217468166E1
1.371720573E0,-8.374879509E-2,3.637090325E-1,1.212682533E1
1.374131511E0,-3.589234129E-2,3.661018610E-1,1.207896900E1
1.376542448E0,3.110669367E-2,3.828516304E-1,1.203350544E1
1.378953386E0,9.092725813E-2,3.972085714E-1,1.198325539E1
1.381364323E0,1.507478207E-1,4.043870270E-1,1.193300629E1
1.383775261E0,2.153540403E-1,4.163511395E-1,1.186361504E1
1.386186198E0,2.703889608E-1,4.402793646E-1,1.180857944E1
1.388597136E0,3.326023519E-1,4.642075896E-1,1.176790142E1
1.391008073E0,3.852444589E-1,4.642075896E-1,1.171525955E1
1.393419011E0,4.354937077E-1,4.713860750E-1,1.164826107E1
1.395829948E0,4.953143001E-1,4.785645306E-1,1.157886887E1
1.398240938E0,5.599204898E-1,4.905286431E-1,1.152383423E1
1.400651875E0,6.101697683E-1,5.072783828E-1,1.147358418E1
1.403062813E0,6.484549642E-1,4.977070987E-1,1.143290615E1
1.405473750E0,6.867401004E-1,5.072783828E-1,1.137787151E1
1.407884688E0,7.369893789E-1,5.240281820E-1,1.133240795E1
1.410295625E0,7.728816867E-1,5.359922647E-1,1.127976608E1
1.412706563E0,8.015955687E-1,5.479564071E-1,1.122951698E1
1.415117500E0,8.279166222E-1,5.623133183E-1,1.117926693E1
1.417528438E0,8.614161611E-1,5.575276613E-1,1.114576817E1
1.419939375E0,8.805587292E-1,5.431707501E-1,1.109791183E1
1.422350313E0,8.949156404E-1,5.694918036E-1,1.105723381E1
1.424761302E0,9.020941257E-1,5.718846321E-1,1.101894855E1
1.427172240E0,9.020941257E-1,5.766702294E-1,1.098544884E1
1.429583177E0,9.020941257E-1,5.694918036E-1,1.095673466E1
1.431994115E0,9.092726111E-1,5.575276613E-1,1.093759251E1
1.434405052E0,9.164510965E-1,5.742774606E-1,1.090409279E1
1.436815990E0,9.116654396E-1,5.766702294E-1,1.087537861E1
1.439226927E0,9.188438654E-1,5.742774606E-1,1.085623646E1
1.441637865E0,9.116654396E-1,5.742774606E-1,1.084666538E1
1.444048802E0,8.829515576E-1,5.814558864E-1,1.084905815E1
1.446459740E0,8.590233326E-1,5.670989752E-1,1.084666538E1
1.448870677E0,8.350951076E-1,5.670989752E-1,1.085623646E1
1.451281615E0,7.872386575E-1,5.670989752E-1,1.085862923E1
1.453692604E0,7.609176040E-1,5.647061467E-1,1.086102200E1
1.456103542E0,7.250252366E-1,5.742774606E-1,1.087537861E1
1.458514479E0,6.963114142E-1,5.575276613E-1,1.090170002E1
1.460925417E0,6.652047038E-1,5.575276613E-1,1.091366386E1
1.463336354E0,6.221339107E-1,5.455635786E-1,1.095194912E1
1.465747292E0,5.718846321E-1,5.455635786E-1,1.098544884E1
1.468158229E0,5.335994363E-1,5.407779217E-1,1.101655579E1
1.470569167E0,4.857429862E-1,5.575276613E-1,1.105484104E1
1.472980104E0,4.450650215E-1,5.359922647E-1,1.109551907E1
1.475391042E0,4.019941986E-1,5.288137794E-1,1.113858986E1
1.477802032E0,3.445664644E-1,5.312066078E-1,1.118166065E1
1.480212917E0,2.847459018E-1,5.144568682E-1,1.122473145E1
1.482623907E0,2.249253243E-1,5.240281820E-1,1.126062298E1
1.485034844E0,1.794617027E-1,5.168496966E-1,1.129412270E1
1.487445782E0,1.268195957E-1,5.168496966E-1,1.134197903E1
1.489856719E0,7.896314561E-2,5.000999570E-1,1.139940739E1
1.492267657E0,4.785645381E-2,4.929214716E-1,1.144008541E1
1.494678594E0,-1.435693540E-2,4.953143001E-1,1.147119141E1
1.497089532E0,-7.178468257E-2,4.785645306E-1,1.149033451E1
1.499500469E0,-1.124626622E-1,4.689932466E-1,1.149033451E1
1.501911407E0,-1.651047617E-1,4.570291340E-1,1.149990559E1
1.504322344E0,-2.033899277E-1,4.594219327E-1,1.149990559E1
1.506733334E0,-2.464607358E-1,4.522434771E-1,1.150469112E1
1.509144271E0,-3.038884699E-1,4.354937077E-1,1.149272728E1
1.511555209E0,-3.517449200E-1,4.187439680E-1,1.148076344E1
1.513966146E0,-3.732803464E-1,4.115654826E-1,1.146162033E1
1.516377084E0,-3.972085714E-1,3.900300860E-1,1.142812061E1
1.518788021E0,-4.283152521E-1,3.852444589E-1,1.138504982E1
1.521198959E0,-4.594219327E-1,3.852444589E-1,1.133958626E1
1.523609896E0,-4.929214716E-1,3.756731451E-1,1.128455162E1
1.526020834E0,-5.240281820E-1,3.565305769E-1,1.120080280E1
1.528431771E0,-5.383850932E-1,3.326023519E-1,1.113619614E1
1.530842709E0,-5.479564071E-1,3.349951804E-1,1.106201935E1
1.533253698E0,-5.694918036E-1,3.230310678E-1,1.097109222E1
1.535664636E0,-5.599204898E-1,3.134597540E-1,1.089212894E1
1.538075573E0,-5.694918036E-1,2.943171859E-1,1.081795120E1
1.540486511E0,-5.790630579E-1,2.967100143E-1,1.072702408E1
1.542897448E0,-5.766702294E-1,2.608176768E-1,1.065763187E1
1.545308386E0,-5.623133183E-1,2.560320199E-1,1.058584690E1
1.547719323E0,-5.647061467E-1,2.536391914E-1,1.049731255E1
1.550130261E0,-5.670989752E-1,2.464607358E-1,1.041835022E1
1.552541198E0,-5.479564071E-1,2.297109663E-1,1.034656525E1
1.554952136E0,-5.288137794E-1,2.225325108E-1,1.027478027E1
1.557363073E0,-5.096712112E-1,2.225325108E-1,1.021017456E1
1.559774063E0,-5.024927258E-1,2.057827413E-1,1.015753174E1
1.562185000E0,-4.809573591E-1,2.105683982E-1,1.009053326E1
1.564595938E0,-4.522434771E-1,1.818545163E-1,1.003789139E1
1.567006875E0,-4.235295951E-1,1.962114573E-1,1.000199890E1
1.569417813E0,-4.091726840E-1,2.153540403E-1,9.961320877E0
1.571828750E0,-3.828516304E-1,1.842473447E-1,9.927821159E0
1.574239688E0,-3.493520916E-1,1.698904037E-1,9.894321442E0
1.576650625E0,-3.254238665E-1,1.794617027E-1,9.875179291E0
1.579061563E0,-2.943171859E-1,1.866401732E-1,9.882357597E0
1.581472500E0,-2.751746178E-1,1.794617027E-1,9.872786522E0
1.583883438E0,-2.608176768E-1,1.603191197E-1,9.865608215E0
1.586294427E0,-2.201396823E-1,1.651047617E-1,9.872786522E0
1.588705365E0,-1.674975902E-1,1.674975902E-1,9.889535904E0
1.591116302E0,-1.411765367E-1,1.698904037E-1,9.901499748E0
1.593527240E0,-9.810572863E-2,1.770688742E-1,9.894321442E0
1.595938177E0,-5.264209956E-2,1.794617027E-1,9.889535904E0
1.598349115E0,-4.546362907E-2,1.794617027E-1,9.915857315E0
1.600760052E0,7.178467698E-3,1.651047617E-1,9.932606697E0
1.603170990E0,4.546362907E-2,1.722832322E-1,9.934999466E0
1.605581927E0,1.124626622E-1,1.794617027E-1,9.937392235E0
1.607992865E0,1.387837082E-1,1.818545163E-1,9.939785004E0
1.610403854E0,1.531406492E-1,1.770688742E-1,9.946963310E0
1.612814792E0,2.153540403E-1,1.914258152E-1,9.944570541E0
1.615225729E0,2.560320199E-1,1.962114573E-1,9.913464546E0
1.617636667E0,3.014956415E-1,2.009970993E-1,9.894321442E0
1.620047604E0,3.302095234E-1,2.273181528E-1,9.868000984E0
1.622458542E0,3.708875179E-1,2.153540403E-1,9.822537422E0
1.624869479E0,4.115654826E-1,2.081755698E-1,9.786644936E0
1.627280417E0,4.378865361E-1,2.009970993E-1,9.726823807E0
1.629691354E0,4.833501875E-1,2.201396823E-1,9.674181938E0
1.632102292E0,5.048855543E-1,2.249253243E-1,9.600004196E0
1.634513229E0,5.240281820E-1,2.273181528E-1,9.509077072E0
1.636924167E0,5.694918036E-1,2.368894368E-1,9.422935486E0
1.639335157E0,5.958128572E-1,2.512463629E-1,9.339186668E0
1.641746094E0,6.101697683E-1,2.584248483E-1,9.243474007E0
1.644157032E0,6.293123364E-1,2.488535494E-1,9.162117958E0
1.646567969E0,6.412764788E-1,2.536391914E-1,9.064012527E0
1.648978907E0,6.460621357E-1,2.703889608E-1,8.973084450E0
1.651389844E0,6.532405615E-1,2.823530734E-1,8.886942863E0
1.653800782E0,6.747759581E-1,2.991028428E-1,8.784051895E0
1.656211719E0,6.723831892E-1,3.014956415E-1,8.700303078E0
1.658622657E0,6.723831892E-1,2.943171859E-1,8.606983185E0
1.661033594E0,6.723831892E-1,3.014956415E-1,8.511270523E0
1.663444532E0,6.675975323E-1,3.110669553E-1,8.422736168E0
1.665855521E0,6.628118753E-1,3.110669553E-1,8.334200859E0
1.668266459E0,6.675975323E-1,3.349951804E-1,8.267202377E0
1.670677396E0,6.604190469E-1,3.445664644E-1,8.202595711E0
1.673088334E0,6.556333899E-1,3.541377485E-1,8.126026154E0
1.675499271E0,6.460621357E-1,3.493520916E-1,8.066205025E0
1.677910209E0,6.317051649E-1,3.613162339E-1,8.006384850E0
1.680321146E0,6.317051649E-1,3.900300860E-1,7.963313580E0
1.682732084E0,6.125625968E-1,3.948157430E-1,7.932207108E0
1.685143021E0,5.862415433E-1,4.043870270E-1,7.903493404E0
1.687553959E0,5.790630579E-1,4.331009090E-1,7.872386456E0
1.689964896E0,5.694918036E-1,4.354937077E-1,7.860422611E0
1.692375886E0,5.599204898E-1,4.402793646E-1,7.855636597E0
1.694786823E0,5.288137794E-1,4.474578202E-1,7.860422611E0
1.697197761E0,5.072783828E-1,4.618147612E-1,7.865208149E0
1.699608698E0,4.809573591E-1,4.737788737E-1,7.889136314E0
1.702019636E0,4.594219327E-1,4.881358147E-1,7.908278942E0
1.704430573E0,4.450650215E-1,5.288137794E-1,7.913064480E0
1.706841511E0,4.307080805E-1,5.503492355E-1,7.953742504E0
1.709252448E0,4.067798555E-1,5.527420044E-1,7.999206066E0
1.711663386E0,3.780659735E-1,5.814558864E-1,8.051848412E0
1.714074323E0,3.445664644E-1,5.982056856E-1,8.092526436E0
1.716485313E0,3.038884699E-1,6.293123364E-1,8.164310455E0
1.718896250E0,2.919243574E-1,6.340979934E-1,8.207381248E0
1.721307188E0,2.679961324E-1,6.412764788E-1,8.260024071E0
1.723718125E0,2.249253243E-1,6.699903607E-1,8.327022552E0
1.726129063E0,1.938186288E-1,6.939185858E-1,8.384450912E0
1.728540000E0,1.579262912E-1,7.130611539E-1,8.444271088E0
1.730950938E0,1.220339537E-1,7.369893789E-1,8.499305725E0
1.733361875E0,1.124626622E-1,7.609176040E-1,8.535198212E0
1.735772813E0,8.135596663E-2,7.800601721E-1,8.583054543E0
1.738183750E0,2.632104978E-2,7.920243144E-1,8.623732567E0
1.740594688E0,-4.785645287E-3,7.992027402E-1,8.640482903E0
1.743005677E0,-1.914258115E-2,8.183453679E-1,8.657232285E0
1.745416615E0,-3.828516230E-2,8.398807645E-1,8.671588898E0
1.747827552E0,-8.135596663E-2,8.542376757E-1,8.678768158E0
1.750238490E0,-1.100698411E-1,8.662018180E-1,8.693124771E0
1.752649427E0,-1.483550072E-1,8.685946465E-1,8.671588898E0
1.755060365E0,-1.794617027E-1,8.829515576E-1,8.654839516E0
1.757471302E0,-1.986042857E-1,9.020941257E-1,8.616554260E0
1.759882240E0,-2.297109663E-1,9.140582681E-1,8.599804878E0
1.762293177E0,-2.632105052E-1,9.308080077E-1,8.573483467E0
1.764704115E0,-2.727817893E-1,9.475577474E-1,8.508877754E0
1.767115052E0,-2.943171859E-1,9.499505758E-1,8.453842163E0
1.769526042E0,-3.086741269E-1,9.714859724E-1,8.408378601E0
1.771936979E0,-3.206382394E-1,9.451649189E-1,8.338987350E0
1.774347917E0,-3.254238665E-1,9.499505758E-1,8.283951759E0
1.776758854E0,-3.421736360E-1,9.643075466E-1,8.221738815E0
1.779169792E0,-3.589234054E-1,9.906286001E-1,8.157132149E0
1.781580729E0,-3.637090325E-1,9.810572863E-1,8.092526436E0
1.783991667E0,-3.613162339E-1,9.810572863E-1,8.044670105E0
1.786402604E0,-3.708875179E-1,9.882357717E-1,7.989634991E0
1.788813542E0,-3.661018610E-1,9.906286001E-1,7.925028801E0
1.791224479E0,-3.708875179E-1,9.834501147E-1,7.865208149E0
1.793635417E0,-3.589234054E-1,9.834501147E-1,7.822137356E0
1.796046407E0,-3.684946895E-1,1.000199914E0,7.781459332E0
1.798457344E0,-3.684946895E-1,1.002592683E0,7.752745152E0
1.800868282E0,-3.637090325E-1,1.012163997E0,7.728816986E0
1.803279219E0,-3.565305769E-1,1.021735311E0,7.714460373E0
1.805690157E0,-3.493520916E-1,1.021735311E0,7.702496052E0
1.808101094E0,-3.326023519E-1,1.028913736E0,7.702496052E0
1.810512032E0,-3.254238665E-1,1.026520967E0,7.724031448E0
1.812922969E0,-3.182454109E-1,1.040877819E0,7.726424217E0
1.815333907E0,-2.967100143E-1,1.055234790E0,7.740781307E0
1.817744844E0,-2.871387303E-1,1.052842021E0,7.771887779E0
1.820155834E0,-2.751746178E-1,1.052842021E0,7.807780266E0
1.822566719E0,-2.703889608E-1,1.067198873E0,7.862815380E0
1.824977709E0,-2.608176768E-1,1.088734269E0,7.908278942E0
1.827388646E0,-2.297109663E-1,1.103091240E0,7.951349735E0
1.829799584E0,-2.201396823E-1,1.115055323E0,8.011170387E0
1.832210521E0,-2.009970993E-1,1.119840980E0,8.078168869E0
1.834621459E0,-1.746760458E-1,1.148554921E0,8.152346611E0
1.837032396E0,-1.651047617E-1,1.150947690E0,8.228917122E0
1.839443334E0,-1.244267747E-1,1.165304661E0,8.281558990E0
1.841854271E0,-8.853443712E-2,1.194018483E0,8.348558426E0
1.844265261E0,-6.221338734E-2,1.191625714E0,8.417949677E0
1.846676198E0,-3.110669367E-2,1.196411371E0,8.484949112E0
1.849087136E0,7.178467698E-3,1.208375454E0,8.547162056E0
1.851498073E0,4.546362907E-2,1.215553880E0,8.597412109E0
1.853909011E0,7.657032460E-2,1.227517962E0,8.650053978E0
1.856319948E0,1.004985496E-1,1.234696507E0,8.705088615E0
1.858730886E0,1.220339537E-1,1.220339537E0,8.752944946E0
1.861141823E0,1.531406492E-1,1.220339537E0,8.796015739E0
1.863552761E0,1.890329868E-1,1.220339537E0,8.822337151E0
1.865963698E0,2.368894368E-1,1.196411371E0,8.831908226E0
1.868374636E0,2.584248483E-1,1.201196909E0,8.858229637E0
1.870785573E0,2.991028428E-1,1.191625714E0,8.884550095E0
1.873196563E0,3.326023519E-1,1.189232826E0,8.898907661E0
1.875607500E0,3.613162339E-1,1.170090318E0,8.906085968E0
1.878018438E0,3.948157430E-1,1.150947690E0,8.908478737E0
1.880429375E0,4.283152521E-1,1.129412293E0,8.896514893E0
1.882840313E0,4.546363056E-1,1.129412293E0,8.874979019E0
1.885251250E0,5.024927258E-1,1.119840980E0,8.870193481E0
1.887662188E0,5.288137794E-1,1.091127157E0,8.851051331E0
1.890073125E0,5.455635786E-1,1.071984529E0,8.829515457E0
1.892484063E0,5.551348329E-1,1.052842021E0,8.812766075E0
1.894895000E0,5.814558864E-1,1.024128079E0,8.788837433E0
1.897305990E0,6.125625968E-1,1.007378340E0,8.784051895E0
1.899716927E0,6.245267391E-1,9.978070259E-1,8.748159409E0
1.902127865E0,6.532405615E-1,9.667003751E-1,8.745766640E0
1.904538802E0,6.580262184E-1,9.284151793E-1,8.726624489E0
1.906949740E0,6.340979934E-1,8.925228715E-1,8.697910309E0
1.909360677E0,6.532405615E-1,8.709874153E-1,8.700303078E0
1.911771615E0,6.556333899E-1,8.590233326E-1,8.709874153E0
1.914182552E0,6.604190469E-1,8.398807645E-1,8.712266922E0
1.916593490E0,6.556333899E-1,8.039883971E-1,8.721838951E0
1.919004427E0,6.484549642E-1,7.752745152E-1,8.743373871E0
1.921415417E0,6.532405615E-1,7.513462901E-1,8.762516975E0
1.923826354E0,6.508477330E-1,7.369893789E-1,8.784051895E0
1.926237292E0,6.508477330E-1,7.202396393E-1,8.839086533E0
1.928648229E0,6.460621357E-1,7.034898400E-1,8.889336586E0
1.931059167E0,6.317051649E-1,6.652047038E-1,8.953942299E0
1.933470104E0,6.221339107E-1,6.484549642E-1,9.028120041E0
1.935881042E0,6.101697683E-1,6.388836503E-1,9.102297783E0
1.938291979E0,5.838487148E-1,6.005984545E-1,9.193224907E0
1.940702917E0,5.623133183E-1,5.814558864E-1,9.291330338E0
1.943113854E0,5.551348329E-1,5.647061467E-1,9.382257462E0
1.945524792E0,5.383850932E-1,5.431707501E-1,9.475577354E0
1.947935729E0,4.953143001E-1,5.024927258E-1,9.580862045E0
1.950346719E0,4.785645306E-1,4.905286431E-1,9.693324089E0
1.952757657E0,4.498506486E-1,4.809573591E-1,9.808179855E0
1.955168594E0,4.331009090E-1,4.618147612E-1,9.932606697E0
1.957579532E0,4.067798555E-1,4.331009090E-1,1.004985523E1
1.959990469E0,3.661018610E-1,4.163511395E-1,1.017906761E1
1.962401407E0,3.206382394E-1,3.828516304E-1,1.029870892E1
1.964812344E0,2.991028428E-1,3.613162339E-1,1.044467068E1
1.967223282E0,2.608176768E-1,3.349951804E-1,1.057627583E1
1.969634219E0,2.297109663E-1,2.847459018E-1,1.069352436E1
1.972045157E0,2.009970993E-1,2.703889608E-1,1.081555843E1
1.974456146E0,1.603191197E-1,2.392822653E-1,1.094477081E1
1.976867084E0,9.571290761E-2,2.273181528E-1,1.106201935E1
1.979278021E0,6.221338734E-2,2.081755698E-1,1.118405342E1
1.981688959E0,2.632104978E-2,1.794617027E-1,1.130608654E1
1.984099896E0,-2.153540403E-2,1.603191197E-1,1.138744259E1
1.986510834E0,-5.982056633E-2,1.292124242E-1,1.149512005E1
1.988921771E0,-7.657032460E-2,1.076770201E-1,1.158604717E1
1.991332709E0,-1.196411327E-1,8.853443712E-2,1.167458153E1
1.993743646E0,-1.579262912E-1,4.785645381E-2,1.175833035E1
1.996154584E0,-2.081755698E-1,3.828516230E-2,1.182772255E1
1.998565573E0,-2.344966233E-1,1.196411345E-2,1.188036442E1
2.000976511E0,-2.703889608E-1,-1.674975827E-2,1.192582798E1
2.003387448E0,-3.014956415E-1,-4.785645381E-2,1.197368431E1
2.005798386E0,-3.326023519E-1,-7.896314561E-2,1.202632618E1
2.008209323E0,-3.613162339E-1,-1.028913707E-1,1.205504036E1
2.010620261E0,-3.804588020E-1,-1.220339537E-1,1.207657623E1
2.013031198E0,-3.948157430E-1,-1.411765367E-1,1.210528946E1
2.015442136E0,-4.187439680E-1,-1.674975902E-1,1.211486149E1
2.017853073E0,-4.331009090E-1,-1.794617027E-1,1.212443256E1
2.020264011E0,-4.522434771E-1,-2.057827413E-1,1.211246777E1
2.022675000E0,-4.618147612E-1,-2.273181528E-1,1.212443256E1
2.025085938E0,-4.594219327E-1,-2.560320199E-1,1.212443256E1
2.027496875E0,-4.642075896E-1,-2.608176768E-1,1.211007500E1
2.029907813E0,-4.450650215E-1,-2.823530734E-1,1.211246777E1
2.032318750E0,-4.498506486E-1,-3.014956415E-1,1.210528946E1
2.034729688E0,-4.594219327E-1,-3.134597540E-1,1.211007500E1
2.037140625E0,-4.522434771E-1,-3.349951804E-1,1.210050392E1
2.039551563E0,-4.450650215E-1,-3.565305769E-1,1.208375454E1
2.041962500E0,-4.331009090E-1,-3.565305769E-1,1.211246777E1
2.044373438E0,-4.331009090E-1,-3.708875179E-1,1.213400364E1
2.046784375E0,-4.211367965E-1,-3.828516304E-1,1.214596748E1
2.049195313E0,-3.948157430E-1,-3.900300860E-1,1.217707443E1
2.051606302E0,-3.780659735E-1,-3.972085714E-1,1.220578861E1
2.054017240E0,-3.613162339E-1,-4.043870270E-1,1.222493076E1
2.056428177E0,-3.397808075E-1,-4.163511395E-1,1.226800156E1
2.058839115E0,-3.182454109E-1,-4.283152521E-1,1.231825066E1
2.061250052E0,-2.967100143E-1,-4.331009090E-1,1.237089348E1
2.063660990E0,-2.751746178E-1,-4.426721931E-1,1.241157150E1
2.066071927E0,-2.464607358E-1,-4.570291340E-1,1.247617722E1
2.068482865E0,-1.986042857E-1,-4.546363056E-1,1.252881908E1
2.070893802E0,-1.531406492E-1,-4.809573591E-1,1.260060406E1
2.073304740E0,-1.172483116E-1,-4.761717021E-1,1.267238903E1
2.075715729E0,-1.028913707E-1,-4.761717021E-1,1.273699474E1
2.078126667E0,-5.264209956E-2,-4.881358147E-1,1.279920864E1
2.080537604E0,-2.632104978E-2,-4.905286431E-1,1.285902882E1
2.082948542E0,7.178467698E-3,-5.096712112E-1,1.292124271E1
2.085359479E0,4.785645381E-2,-5.024927258E-1,1.297627735E1
2.087770417E0,7.657032460E-2,-4.881358147E-1,1.303131199E1
2.090181354E0,1.268195957E-1,-4.905286431E-1,1.307438278E1
2.092592292E0,1.746760458E-1,-5.000999570E-1,1.312223911E1
2.095003229E0,2.105683982E-1,-5.048855543E-1,1.316530991E1
2.097414167E0,2.464607358E-1,-5.048855543E-1,1.318684578E1
2.099825157E0,2.991028428E-1,-4.881358147E-1,1.321795273E1
2.102236094E0,3.397808075E-1,-5.000999570E-1,1.324666595E1
2.104647032E0,3.756731451E-1,-4.833501875E-1,1.325623703E1
2.107057969E0,4.091726840E-1,-4.905286431E-1,1.326102352E1
2.109468907E0,4.666004181E-1,-4.857429862E-1,1.326341629E1
2.111879844E0,4.761717021E-1,-4.785645306E-1,1.323230934E1
2.114290782E0,5.192425251E-1,-4.785645306E-1,1.322273827E1
2.116701719E0,5.742774606E-1,-4.642075896E-1,1.318684578E1
2.119112657E0,6.005984545E-1,-4.713860750E-1,1.315573883E1
2.121523594E0,6.221339107E-1,-4.666004181E-1,1.312463188E1
2.123934532E0,6.364908218E-1,-4.474578202E-1,1.308634663E1
2.126345521E0,6.508477330E-1,-4.426721931E-1,1.303370476E1
2.128756459E0,6.699903607E-1,-4.307080805E-1,1.297627735E1
2.131167396E0,6.891329288E-1,-4.354937077E-1,1.290449238E1
2.133578334E0,6.843472719E-1,-4.115654826E-1,1.282792187E1
2.135989271E0,6.987041831E-1,-3.924229145E-1,1.275853062E1
2.138400209E0,6.963114142E-1,-3.661018610E-1,1.270110226E1
2.140811146E0,6.987041831E-1,-3.493520916E-1,1.262931824E1
2.143222084E0,7.058826685E-1,-3.613162339E-1,1.256710434E1
2.145633021E0,7.010970116E-1,-3.493520916E-1,1.249532032E1
2.148044011E0,7.130611539E-1,-3.278166950E-1,1.242353535E1
2.150454948E0,6.915257573E-1,-3.038884699E-1,1.233739376E1
2.152865886E0,6.699903607E-1,-2.967100143E-1,1.227278709E1
2.155276823E0,6.580262184E-1,-2.751746178E-1,1.222732353E1
2.157687761E0,6.460621357E-1,-2.703889608E-1,1.216989613E1
2.160098698E0,6.149554253E-1,-2.464607358E-1,1.211964703E1
2.162509636E0,6.125625968E-1,-2.225325108E-1,1.208375454E1
2.164920573E0,5.790630579E-1,-2.249253243E-1,1.205504036E1
2.167331511E0,5.527420044E-1,-2.105683982E-1,1.202393341E1
2.169742448E0,5.216353536E-1,-1.722832322E-1,1.200718403E1
2.172153386E0,4.905286431E-1,-1.579262912E-1,1.201196957E1
2.174564323E0,4.689932466E-1,-1.507478207E-1,1.201914787E1
2.176975313E0,4.474578202E-1,-1.220339537E-1,1.201196957E1
2.179386250E0,4.019941986E-1,-1.052841991E-1,1.202632618E1
2.181797188E0,3.613162339E-1,-1.052841991E-1,1.205025482E1
2.184208125E0,3.230310678E-1,-7.896314561E-2,1.206939697E1
2.186619063E0,2.919243574E-1,-5.742774159E-2,1.211007500E1
2.189030000E0,2.656033039E-1,-4.785645381E-2,1.214357471E1
2.191440938E0,2.344966233E-1,-3.589234129E-2,1.216989613E1
2.193851875E0,1.818545163E-1,-4.785645287E-3,1.223450184E1
2.196262813E0,1.411765367E-1,2.153540403E-2,1.227517986E1
2.198673750E0,1.100698411E-1,3.349951655E-2,1.231346512E1
2.201084740E0,7.417750359E-2,3.589234129E-2,1.232782269E1
2.203495677E0,4.067798331E-2,5.264209956E-2,1.236610699E1
2.205906615E0,1.196411345E-2,8.135596663E-2,1.240199947E1
2.208317552E0,-1.674975827E-2,9.571290761E-2,1.243310642E1
2.210728490E0,-7.417750359E-2,1.363908947E-1,1.246182060E1
2.213139427E0,-1.028913707E-1,1.507478207E-1,1.246421337E1
2.215550365E0,-1.579262912E-1,1.627119333E-1,1.246182060E1
2.217961302E0,-1.938186288E-1,1.770688742E-1,1.245703506E1
2.220372240E0,-2.057827413E-1,1.842473447E-1,1.244746304E1
2.222783177E0,-2.344966233E-1,2.081755698E-1,1.242114258E1
2.225194167E0,-2.679961324E-1,2.177468538E-1,1.238764286E1
2.227605104E0,-2.943171859E-1,2.368894368E-1,1.236610699E1
2.230016042E0,-3.206382394E-1,2.321037948E-1,1.229671574E1
2.232426979E0,-3.397808075E-1,2.488535494E-1,1.222732353E1
2.234837917E0,-3.493520916E-1,2.584248483E-1,1.215793228E1
2.237248854E0,-3.780659735E-1,2.799602449E-1,1.208375454E1
2.239659792E0,-3.948157430E-1,2.775674164E-1,1.198804188E1
2.242070729E0,-3.852444589E-1,3.014956415E-1,1.190190029E1
2.244481667E0,-4.019941986E-1,3.206382394E-1,1.179422283E1
2.246892604E0,-4.115654826E-1,3.134597540E-1,1.170568848E1
2.249303594E0,-4.067798555E-1,3.206382394E-1,1.160758305E1
2.251714532E0,-3.996013701E-1,3.182454109E-1,1.149512005E1
2.254125469E0,-3.972085714E-1,3.158525825E-1,1.138744259E1
2.256536407E0,-3.924229145E-1,3.349951804E-1,1.127737331E1
2.258947344E0,-3.900300860E-1,3.517449200E-1,1.117687416E1
2.261358282E0,-3.684946895E-1,3.565305769E-1,1.108116150E1
2.263769219E0,-3.661018610E-1,3.565305769E-1,1.100459099E1
2.266180157E0,-3.517449200E-1,3.613162339E-1,1.091366386E1
2.268591094E0,-3.302095234E-1,3.661018610E-1,1.082512951E1
2.271002084E0,-3.158525825E-1,3.493520916E-1,1.075813103E1
2.273413021E0,-3.182454109E-1,3.541377485E-1,1.068873882E1
2.275823959E0,-3.062812984E-1,3.661018610E-1,1.062891865E1
2.278234896E0,-2.751746178E-1,3.684946895E-1,1.058106136E1
2.280645834E0,-2.368894368E-1,3.541377485E-1,1.053559780E1
2.283056771E0,-2.273181528E-1,3.517449200E-1,1.048056316E1
2.285467709E0,-2.153540403E-1,3.469592929E-1,1.044706345E1
2.287878646E0,-1.698904037E-1,3.421736360E-1,1.042074299E1
2.290289584E0,-1.674975902E-1,3.469592929E-1,1.040877819E1
2.292700521E0,-1.579262912E-1,3.278166950E-1,1.040159988E1
2.295111459E0,-1.100698411E-1,3.278166950E-1,1.039202881E1
2.297522448E0,-9.092725813E-2,3.541377485E-1,1.039202881E1
2.299933386E0,-5.264209956E-2,3.613162339E-1,1.040638542E1
2.302344323E0,-2.632104978E-2,3.421736360E-1,1.042074299E1
2.304755261E0,0.000000000E0,3.493520916E-1,1.042552853E1
2.307166198E0,3.110669367E-2,3.397808075E-1,1.043749237E1
2.309577136E0,6.699903309E-2,3.397808075E-1,1.046381378E1
2.311988073E0,1.028913707E-1,3.182454109E-1,1.048295593E1
2.314399011E0,1.244267747E-1,3.134597540E-1,1.048774147E1
2.316809948E0,1.579262912E-1,3.110669553E-1,1.049731255E1
2.319220886E0,1.890329868E-1,2.895315289E-1,1.050209904E1
2.321631875E0,2.081755698E-1,2.919243574E-1,1.050688457E1
2.324042813E0,2.344966233E-1,2.727817893E-1,1.051884842E1
2.326453750E0,2.727817893E-1,2.584248483E-1,1.052363396E1
2.328864688E0,3.086741269E-1,2.344966233E-1,1.049013424E1
2.331275625E0,3.134597540E-1,2.368894368E-1,1.048295593E1
2.333686563E0,3.421736360E-1,2.225325108E-1,1.046620655E1
2.336097500E0,3.708875179E-1,2.057827413E-1,1.042552853E1
2.338508438E0,4.019941986E-1,1.794617027E-1,1.039202881E1
2.340919375E0,4.187439680E-1,1.507478207E-1,1.035613632E1
2.343330313E0,4.450650215E-1,1.531406492E-1,1.031067276E1
2.345741302E0,4.546363056E-1,1.387837082E-1,1.026042366E1
2.348152240E0,4.689932466E-1,1.220339537E-1,1.020060253E1
2.350563177E0,4.737788737E-1,1.100698411E-1,1.012403297E1
2.352974115E0,5.024927258E-1,9.810572863E-2,1.006421185E1
2.355385052E0,5.120640397E-1,6.939185411E-2,9.999606133E0
2.357795990E0,5.216353536E-1,5.264209956E-2,9.932606697E0
2.360206927E0,5.168496966E-1,5.024927482E-2,9.870393753E0
2.362617865E0,5.168496966E-1,2.392822690E-2,9.793823242E0
2.365028802E0,5.120640397E-1,1.435693540E-2,9.724431038E0
2.367439792E0,5.048855543E-1,-2.392822690E-2,9.645467758E0
2.369850729E0,4.977070987E-1,-3.828516230E-2,9.566504478E0
2.372261667E0,5.096712112E-1,-5.742774159E-2,9.521040916E0
2.374672604E0,5.072783828E-1,-6.221338734E-2,9.461220741E0
2.377083542E0,5.096712112E-1,-7.657032460E-2,9.389435768E0
2.379494479E0,4.977070987E-1,-1.076770201E-1,9.351150513E0
2.381905417E0,4.857429862E-1,-1.387837082E-1,9.300901413E0
2.384316354E0,4.618147612E-1,-1.411765367E-1,9.279366493E0
2.386727292E0,4.689932466E-1,-1.579262912E-1,9.231510162E0
2.389138229E0,4.402793646E-1,-1.842473447E-1,9.209974289E0
2.391549167E0,4.283152521E-1,-2.081755698E-1,9.178867340E0
2.393960157E0,4.091726840E-1,-2.321037948E-1,9.169296265E0
2.396371094E0,3.876372576E-1,-2.368894368E-1,9.157332420E0
2.398782032E0,3.708875179E-1,-2.464607358E-1,9.157332420E0
2.401192969E0,3.541377485E-1,-2.632105052E-1,9.164510727E0
2.403603907E0,3.445664644E-1,-2.608176768E-1,9.178867340E0
2.406014844E0,3.302095234E-1,-2.823530734E-1,9.212367058E0
2.408425782E0,3.086741269E-1,-2.943171859E-1,9.236295700E0
2.410836719E0,2.703889608E-1,-3.302095234E-1,9.267401695E0
2.413247657E0,2.608176768E-1,-3.469592929E-1,9.291330338E0
2.415658594E0,2.297109663E-1,-3.708875179E-1,9.351150513E0
2.418069584E0,2.177468538E-1,-3.756731451E-1,9.410971642E0
2.420480521E0,1.938186288E-1,-3.900300860E-1,9.461220741E0
2.422891459E0,1.842473447E-1,-4.091726840E-1,9.501898766E0
2.425302396E0,1.555334777E-1,-4.354937077E-1,9.566504478E0
2.427713334E0,1.292124242E-1,-4.570291340E-1,9.626325607E0
2.430124271E0,1.076770201E-1,-4.761717021E-1,9.688538551E0
2.432535209E0,1.028913707E-1,-4.833501875E-1,9.762716293E0
2.434946146E0,7.417750359E-2,-4.761717021E-1,9.824930191E0
2.437357084E0,3.828516230E-2,-4.881358147E-1,9.875179291E0
2.439768021E0,1.674975827E-2,-5.168496966E-1,9.923035622E0
2.442179011E0,-4.785645287E-3,-5.240281820E-1,9.987641335E0
2.444589948E0,-3.349951655E-2,-5.503492355E-1,1.002831936E1
2.447000886E0,-5.264209956E-2,-5.670989752E-1,1.005464077E1
2.449411823E0,-6.939185411E-2,-5.814558864E-1,1.009292603E1
2.451822761E0,-9.810572863E-2,-5.934200287E-1,1.012642574E1
2.454233698E0,-1.268195957E-1,-6.149554253E-1,1.013599682E1
2.456644636E0,-1.339980662E-1,-6.173482537E-1,1.015513897E1
2.459055573E0,-1.627119333E-1,-6.364908218E-1,1.015753174E1
2.461466511E0,-1.770688742E-1,-6.293123364E-1,1.015513897E1
2.463877448E0,-1.818545163E-1,-6.556333899E-1,1.015035343E1
2.466288438E0,-1.938186288E-1,-6.604190469E-1,1.013360405E1
2.468699375E0,-2.153540403E-1,-6.628118753E-1,1.011446095E1
2.471110313E0,-2.225325108E-1,-6.652047038E-1,1.008335495E1
2.473521250E0,-2.536391914E-1,-6.747759581E-1,1.004506969E1
2.475932188E0,-2.608176768E-1,-6.747759581E-1,1.002592659E1
2.478343125E0,-2.608176768E-1,-6.891329288E-1,9.982855797E0
2.480754063E0,-2.560320199E-1,-7.154539824E-1,9.920642853E0
2.483165000E0,-2.656033039E-1,-7.058826685E-1,9.891928673E0
2.485575938E0,-2.656033039E-1,-6.987041831E-1,9.851250648E0
2.487986927E0,-2.847459018E-1,-7.082754970E-1,9.801001549E0
2.490397865E0,-2.943171859E-1,-7.010970116E-1,9.755537987E0
2.492808802E0,-3.110669553E-1,-7.154539824E-1,9.731609344E0
2.495219740E0,-3.014956415E-1,-7.393822074E-1,9.686145782E0
2.497630677E0,-2.943171859E-1,-7.322037220E-1,9.652647018E0
2.500041615E0,-2.895315289E-1,-7.345965505E-1,9.616754532E0
2.502452552E0,-2.799602449E-1,-7.489534616E-1,9.583254814E0
2.504863490E0,-2.751746178E-1,-7.537391186E-1,9.554540634E0
2.507274427E0,-2.871387303E-1,-7.585247755E-1,9.530612946E0
2.509685365E0,-2.727817893E-1,-7.704889178E-1,9.516255379E0
2.512096354E0,-2.679961324E-1,-7.728816867E-1,9.506684303E0
2.514507292E0,-2.703889608E-1,-7.704889178E-1,9.499505997E0
2.516918229E0,-2.632105052E-1,-7.944171429E-1,9.497113228E0
2.519329167E0,-2.464607358E-1,-8.015955687E-1,9.497113228E0
2.521740104E0,-2.464607358E-1,-8.039883971E-1,9.518648148E0
2.524151042E0,-2.344966233E-1,-8.135597110E-1,9.523433685E0
2.526561979E0,-2.177468538E-1,-8.135597110E-1,9.542576790E0
2.528972917E0,-2.201396823E-1,-8.015955687E-1,9.580862045E0
2.531383854E0,-2.177468538E-1,-8.111668825E-1,9.614361763E0
2.533794792E0,-1.890329868E-1,-8.255237937E-1,9.650253296E0
2.536205782E0,-1.890329868E-1,-8.590233326E-1,9.686145782E0
2.538616719E0,-1.770688742E-1,-8.685946465E-1,9.729216576E0
2.541027657E0,-1.555334777E-1,-8.877372146E-1,9.772287369E0
2.543438594E0,-1.387837082E-1,-8.925228715E-1,9.832108498E0
2.545849532E0,-1.220339537E-1,-8.805587292E-1,9.891928673E0
2.548260469E0,-9.810572863E-2,-8.901300430E-1,9.951749802E0
2.550671407E0,-7.896314561E-2,-9.092726111E-1,1.001874828E1
2.553082344E0,-7.417750359E-2,-9.164510965E-1,1.007378292E1
2.555493282E0,-5.024927482E-2,-9.212366939E-1,1.012642574E1
2.557904219E0,-3.349951655E-2,-9.332008362E-1,1.017906761E1
2.560315209E0,-9.571290575E-3,-9.403793216E-1,1.023170948E1
2.562726146E0,0.000000000E0,-9.595218897E-1,1.028674412E1
2.565137084E0,3.349951655E-2,-9.619147182E-1,1.033220863E1
2.567548021E0,6.221338734E-2,-9.690931439E-1,1.036331463E1
2.569958959E0,7.417750359E-2,-9.714859724E-1,1.039202881E1
2.572369896E0,9.332008660E-2,-9.738788009E-1,1.042313576E1
2.574780834E0,1.100698411E-1,-9.882357717E-1,1.043031406E1
2.577191771E0,1.507478207E-1,-9.978070259E-1,1.045424175E1
2.579602709E0,1.674975902E-1,-1.000199914E0,1.045663452E1
2.582013646E0,1.890329868E-1,-1.000199914E0,1.044227791E1
2.584424636E0,1.962114573E-1,-1.002592683E0,1.045663452E1
2.586835573E0,2.105683982E-1,-9.930213690E-1,1.044945621E1
2.589246511E0,2.392822653E-1,-1.000199914E0,1.044227791E1
2.591657448E0,2.751746178E-1,-9.906286001E-1,1.041595650E1
2.594068386E0,2.919243574E-1,-9.858429432E-1,1.038724327E1
2.596479323E0,2.919243574E-1,-9.930213690E-1,1.036092186E1
2.598890261E0,3.302095234E-1,-9.714859724E-1,1.032024384E1
2.601301198E0,3.421736360E-1,-9.690931439E-1,1.030349445E1
2.603712136E0,3.613162339E-1,-9.667003751E-1,1.026520920E1
2.606123073E0,3.661018610E-1,-9.643075466E-1,1.021974564E1
2.608534063E0,3.876372576E-1,-9.667003751E-1,1.019103146E1
2.610945000E0,3.972085714E-1,-9.523434043E-1,1.015753174E1
2.613355938E0,4.067798555E-1,-9.355936646E-1,1.011446095E1
2.615766875E0,4.187439680E-1,-9.236295223E-1,1.008096218E1
2.618177813E0,4.187439680E-1,-9.068797827E-1,1.006181908E1
2.620588750E0,4.211367965E-1,-9.116654396E-1,1.005224800E1
2.622999688E0,4.402793646E-1,-9.092726111E-1,1.003310490E1
2.625410625E0,4.546363056E-1,-8.997012973E-1,1.002592659E1
2.627821563E0,4.689932466E-1,-8.829515576E-1,1.001635551E1
2.630232552E0,4.522434771E-1,-8.685946465E-1,1.000678444E1
2.632643490E0,4.498506486E-1,-8.614161611E-1,1.001396275E1
2.635054427E0,4.642075896E-1,-8.518448472E-1,1.001635551E1
2.637465365E0,4.546363056E-1,-8.614161611E-1,1.004267693E1
2.639876302E0,4.498506486E-1,-8.614161611E-1,1.007378292E1
2.642287240E0,4.378865361E-1,-8.255237937E-1,1.010249710E1
2.644698177E0,4.450650215E-1,-8.183453679E-1,1.014556789E1
2.647109115E0,4.522434771E-1,-8.207381964E-1,1.017428207E1
2.649520052E0,4.426721931E-1,-8.111668825E-1,1.022453117E1
2.651930990E0,4.354937077E-1,-7.872386575E-1,1.027478027E1
2.654341979E0,4.259224236E-1,-7.800601721E-1,1.032263660E1
2.656752917E0,4.043870270E-1,-7.680960894E-1,1.038963604E1
2.659163854E0,3.948157430E-1,-7.561319470E-1,1.044706345E1
2.661574792E0,3.900300860E-1,-7.537391186E-1,1.049970531E1
2.663985729E0,3.708875179E-1,-7.417750359E-1,1.056191921E1
2.666396667E0,3.469592929E-1,-7.274180651E-1,1.063370419E1
2.668807604E0,3.493520916E-1,-6.987041831E-1,1.071506023E1
2.671218542E0,3.373879790E-1,-6.891329288E-1,1.077009487E1
2.673629479E0,3.110669553E-1,-6.675975323E-1,1.084666538E1
2.676040417E0,2.799602449E-1,-6.508477330E-1,1.091366386E1
2.678451354E0,2.727817893E-1,-6.412764788E-1,1.096391296E1
2.680862344E0,2.584248483E-1,-6.221339107E-1,1.100459099E1
2.683273282E0,2.201396823E-1,-6.029912829E-1,1.106680489E1
2.685684219E0,2.009970993E-1,-5.934200287E-1,1.111944675E1
2.688095157E0,1.746760458E-1,-5.551348329E-1,1.117448139E1
2.690506094E0,1.531406492E-1,-5.335994363E-1,1.121276665E1
2.692917032E0,1.339980662E-1,-5.192425251E-1,1.124626637E1
2.695327969E0,1.028913707E-1,-4.977070987E-1,1.127498055E1
2.697738907E0,7.417750359E-2,-4.713860750E-1,1.130369377E1
2.700149896E0,5.982056633E-2,-4.594219327E-1,1.132522964E1
2.702560834E0,2.153540403E-2,-4.307080805E-1,1.133480072E1
2.704971771E0,-7.178467698E-3,-4.091726840E-1,1.135633659E1
2.707382709E0,-2.632104978E-2,-3.924229145E-1,1.135872936E1
2.709793646E0,-6.221338734E-2,-3.613162339E-1,1.136830044E1
2.712204584E0,-8.135596663E-2,-3.254238665E-1,1.137547874E1
2.714615521E0,-9.571290761E-2,-3.014956415E-1,1.136590767E1
2.717026459E0,-1.244267747E-1,-2.727817893E-1,1.133958626E1
2.719437396E0,-1.339980662E-1,-2.536391914E-1,1.132522964E1
2.721848386E0,-1.627119333E-1,-2.201396823E-1,1.131565857E1
2.724259323E0,-1.818545163E-1,-2.081755698E-1,1.127498055E1
2.726670261E0,-2.081755698E-1,-1.866401732E-1,1.125823021E1
2.729081198E0,-2.201396823E-1,-1.651047617E-1,1.123669529E1
2.731492136E0,-2.416750938E-1,-1.387837082E-1,1.121515942E1
2.733903073E0,-2.703889608E-1,-1.100698411E-1,1.118644619E1
2.736314011E0,-2.751746178E-1,-8.853443712E-2,1.116491032E1
2.738724948E0,-2.703889608E-1,-6.939185411E-2,1.115294647E1
2.741135886E0,-2.751746178E-1,-5.742774159E-2,1.113380337E1
2.743546823E0,-2.871387303E-1,-1.674975827E-2,1.111705399E1
2.745957813E0,-2.799602449E-1,9.571290575E-3,1.108355427E1
2.748368750E0,-2.919243574E-1,2.871387079E-2,1.106441212E1
2.750779688E0,-3.014956415E-1,5.982056633E-2,1.105962658E1
2.753190625E0,-3.086741269E-1,9.332008660E-2,1.105484104E1
2.755601563E0,-3.014956415E-1,9.092725813E-2,1.106201935E1
2.758012500E0,-2.823530734E-1,1.076770201E-1,1.105723381E1
2.760423438E0,-2.871387303E-1,1.483550072E-1,1.106201935E1
2.762834375E0,-2.871387303E-1,1.794617027E-1,1.105723381E1
2.765245313E0,-2.751746178E-1,1.818545163E-1,1.106919765E1
2.767656250E0,-2.608176768E-1,1.890329868E-1,1.109073257E1
2.770067240E0,-2.584248483E-1,2.177468538E-1,1.110748291E1
2.772478177E0,-2.440679073E-1,2.560320199E-1,1.113141060E1
2.774889115E0,-2.321037948E-1,2.703889608E-1,1.114816093E1
2.777300052E0,-2.129612118E-1,3.062812984E-1,1.116251755E1
2.779710990E0,-1.914258152E-1,3.445664644E-1,1.117926693E1
2.782121927E0,-1.770688742E-1,3.493520916E-1,1.121755219E1
2.784532865E0,-1.555334777E-1,3.732803464E-1,1.125823021E1
2.786943802E0,-1.316052526E-1,3.996013701E-1,1.128933716E1
2.789354792E0,-1.172483116E-1,4.187439680E-1,1.131805134E1
2.791765677E0,-9.092725813E-2,4.426721931E-1,1.134437180E1
2.794176667E0,-5.742774159E-2,4.498506486E-1,1.136590767E1
2.796587604E0,-3.349951655E-2,4.761717021E-1,1.138983536E1
2.798998542E0,2.392822644E-3,4.833501875E-1,1.142812061E1
2.801409479E0,2.871387079E-2,5.072783828E-1,1.145444202E1
2.803820417E0,6.460621208E-2,5.240281820E-1,1.147597694E1
2.806231354E0,9.332008660E-2,5.455635786E-1,1.150708389E1
2.808642292E0,1.220339537E-1,5.479564071E-1,1.153819084E1
2.811053229E0,1.507478207E-1,5.503492355E-1,1.154058361E1
2.813464167E0,1.866401732E-1,5.575276613E-1,1.156211948E1
2.815875157E0,2.105683982E-1,5.766702294E-1,1.156690502E1
2.818286094E0,2.512463629E-1,5.958128572E-1,1.159322548E1
2.820697032E0,2.799602449E-1,6.005984545E-1,1.159801102E1
2.823107969E0,3.110669553E-1,5.982056856E-1,1.160519028E1
2.825518907E0,3.541377485E-1,6.053841114E-1,1.161476135E1
2.827929844E0,3.852444589E-1,6.029912829E-1,1.161476135E1
2.830340782E0,4.019941986E-1,6.293123364E-1,1.161476135E1
2.832751719E0,4.163511395E-1,6.245267391E-1,1.160519028E1
2.835162657E0,4.211367965E-1,6.293123364E-1,1.159801102E1
2.837573646E0,4.618147612E-1,6.293123364E-1,1.159322548E1
2.839984584E0,5.000999570E-1,6.317051649E-1,1.158365440E1
2.842395521E0,4.977070987E-1,6.340979934E-1,1.157408333E1
2.844806459E0,5.264210105E-1,6.364908218E-1,1.156929779E1
2.847217396E0,5.264210105E-1,6.388836503E-1,1.155015469E1
2.849628334E0,5.431707501E-1,6.077769399E-1,1.156211948E1
2.852039271E0,5.623133183E-1,6.029912829E-1,1.154536915E1
2.854450209E0,5.742774606E-1,5.862415433E-1,1.154058361E1
2.856861146E0,5.886343718E-1,5.886343718E-1,1.154058361E1
2.859272084E0,5.862415433E-1,5.742774606E-1,1.152861977E1
2.861683073E0,5.694918036E-1,5.670989752E-1,1.152144146E1
2.864094011E0,5.814558864E-1,5.527420044E-1,1.154058361E1
2.866504948E0,5.790630579E-1,5.623133183E-1,1.153101254E1
2.868915886E0,5.527420044E-1,5.455635786E-1,1.153101254E1
2.871326823E0,5.647061467E-1,5.240281820E-1,1.155733299E1
2.873737761E0,5.599204898E-1,4.977070987E-1,1.157408333E1
2.876148698E0,5.431707501E-1,4.929214716E-1,1.157886887E1
2.878559636E0,5.264210105E-1,4.785645306E-1,1.161236858E1
2.880970573E0,5.216353536E-1,4.666004181E-1,1.164108181E1
2.883381563E0,5.072783828E-1,4.570291340E-1,1.168175983E1
2.885792500E0,4.785645306E-1,4.522434771E-1,1.172483063E1
2.888203438E0,4.618147612E-1,4.354937077E-1,1.177268696E1
2.890614375E0,4.498506486E-1,4.211367965E-1,1.181815147E1
2.893025313E0,4.211367965E-1,4.067798555E-1,1.187079334E1
2.895436250E0,3.996013701E-1,3.972085714E-1,1.194257736E1
2.897847188E0,3.565305769E-1,3.684946895E-1,1.199282742E1
2.900258125E0,3.421736360E-1,3.349951804E-1,1.204546928E1
2.902669063E0,3.158525825E-1,3.373879790E-1,1.209332561E1
2.905080000E0,2.895315289E-1,3.182454109E-1,1.216032505E1
2.907490990E0,2.608176768E-1,2.919243574E-1,1.222493076E1
2.909901927E0,2.368894368E-1,2.847459018E-1,1.229193020E1
2.912312865E0,2.153540403E-1,2.512463629E-1,1.235653591E1
2.914723802E0,1.770688742E-1,2.297109663E-1,1.241396427E1
2.917134740E0,1.387837082E-1,2.057827413E-1,1.247378445E1
2.919545677E0,1.363908947E-1,1.986042857E-1,1.251924801E1
2.921956615E0,9.571290761E-2,2.033899277E-1,1.256471157E1
2.924367552E0,6.939185411E-2,1.674975902E-1,1.261017513E1
2.926778542E0,3.349951655E-2,1.435693651E-1,1.265085316E1
2.929189479E0,2.392822644E-3,1.196411327E-1,1.268674564E1
2.931600417E0,-1.674975827E-2,1.052841991E-1,1.272263813E1
2.934011354E0,-3.828516230E-2,8.135596663E-2,1.273220921E1
2.936422292E0,-5.503492057E-2,6.460621208E-2,1.274417305E1
2.938833229E0,-9.332008660E-2,5.982056633E-2,1.276331615E1
2.941244167E0,-1.220339537E-1,2.632104978E-2,1.277049446E1
2.943655104E0,-1.316052526E-1,0.000000000E0,1.277049446E1
2.946066042E0,-1.507478207E-1,-2.153540403E-2,1.275613785E1
2.948476979E0,-1.746760458E-1,-3.349951655E-2,1.275135231E1
2.950887917E0,-1.890329868E-1,-4.067798331E-2,1.272981644E1
2.953298907E0,-1.962114573E-1,-7.657032460E-2,1.269392395E1
2.955709844E0,-2.081755698E-1,-9.810572863E-2,1.265803146E1
2.958120782E0,-2.225325108E-1,-1.339980662E-1,1.260060406E1
2.960531719E0,-2.321037948E-1,-1.459621787E-1,1.257188988E1
2.962942657E0,-2.488535494E-1,-1.483550072E-1,1.252881908E1
2.965353594E0,-2.464607358E-1,-1.483550072E-1,1.248814106E1
2.967764532E0,-2.416750938E-1,-1.770688742E-1,1.243071365E1
2.970175469E0,-2.321037948E-1,-1.746760458E-1,1.238285732E1
2.972586459E0,-2.249253243E-1,-1.938186288E-1,1.233500099E1
2.974997396E0,-2.297109663E-1,-2.081755698E-1,1.227996540E1
2.977408334E0,-2.368894368E-1,-2.321037948E-1,1.224168110E1
2.979819271E0,-2.488535494E-1,-2.536391914E-1,1.218903828E1
2.982230209E0,-2.249253243E-1,-2.656033039E-1,1.215075302E1
2.984641146E0,-2.057827413E-1,-2.703889608E-1,1.209571838E1
2.987052084E0,-2.033899277E-1,-2.823530734E-1,1.206221867E1
2.989463021E0,-1.794617027E-1,-2.871387303E-1,1.202871990E1
2.991873959E0,-1.770688742E-1,-2.799602449E-1,1.199282742E1
2.994284896E0,-1.627119333E-1,-3.062812984E-1,1.195932770E1
2.996695886E0,-1.507478207E-1,-3.326023519E-1,1.192582798E1
2.999106823E0,-1.339980662E-1,-3.254238665E-1,1.190668583E1
3.001517761E0,-1.100698411E-1,-3.326023519E-1,1.190190029E1
3.003928698E0,-8.135596663E-2,-3.469592929E-1,1.186840057E1
3.006339636E0,-5.982056633E-2,-3.517449200E-1,1.185404301E1
3.008750573E0,-4.067798331E-2,-3.445664644E-1,1.184925747E1
3.011161511E0,-2.871387079E-2,-3.493520916E-1,1.183968639E1
3.013572448E0,-2.392822644E-3,-3.565305769E-1,1.182532978E1
3.015983386E0,1.914258115E-2,-3.684946895E-1,1.180379391E1
3.018394375E0,3.110669367E-2,-3.493520916E-1,1.179661560E1
3.020805313E0,5.982056633E-2,-3.613162339E-1,1.178225899E1
3.023216250E0,8.853443712E-2,-3.589234054E-1,1.177747345E1
3.025627188E0,1.244267747E-1,-3.589234054E-1,1.176790142E1
3.028038125E0,1.435693651E-1,-3.493520916E-1,1.174875927E1
3.030449063E0,1.674975902E-1,-3.517449200E-1,1.172243786E1
3.032860000E0,1.938186288E-1,-3.804588020E-1,1.169133186E1
3.035270938E0,2.225325108E-1,-3.445664644E-1,1.164826107E1
3.037681875E0,2.392822653E-1,-3.445664644E-1,1.162911797E1
3.040092865E0,2.608176768E-1,-3.326023519E-1,1.159083271E1
3.042503802E0,2.967100143E-1,-3.062812984E-1,1.153340530E1
3.044914740E0,3.110669553E-1,-3.014956415E-1,1.147119141E1
3.047325677E0,3.302095234E-1,-2.895315289E-1,1.140897846E1
3.049736615E0,3.421736360E-1,-2.751746178E-1,1.135633659E1
3.052147552E0,3.589234054E-1,-2.895315289E-1,1.130130100E1
3.054558490E0,3.852444589E-1,-2.727817893E-1,1.124148083E1
3.056969427E0,3.900300860E-1,-2.344966233E-1,1.115533924E1
3.059380365E0,4.115654826E-1,-2.177468538E-1,1.106680489E1
3.061791302E0,4.115654826E-1,-2.225325108E-1,1.097587776E1
3.064202292E0,4.307080805E-1,-2.033899277E-1,1.091127110E1
3.066613229E0,4.618147612E-1,-1.986042857E-1,1.082273674E1
3.069024167E0,4.594219327E-1,-1.890329868E-1,1.072223854E1
3.071435104E0,4.570291340E-1,-1.818545163E-1,1.064088249E1
3.073846042E0,4.666004181E-1,-1.651047617E-1,1.054277611E1
3.076256979E0,4.689932466E-1,-1.339980662E-1,1.045663452E1
3.078667917E0,4.857429862E-1,-1.100698411E-1,1.037288570E1
3.081078854E0,4.666004181E-1,-1.148554832E-1,1.028913784E1
3.083489792E0,4.570291340E-1,-7.657032460E-2,1.021496010E1
3.085900782E0,4.642075896E-1,-5.503492057E-2,1.013121128E1
3.088311719E0,4.618147612E-1,-4.067798331E-2,1.003789139E1
3.090722657E0,4.570291340E-1,-2.392822690E-2,9.966106415E0
3.093133594E0,4.618147612E-1,7.178467698E-3,9.899106979E0
3.095544532E0,4.450650215E-1,3.349951655E-2,9.832108498E0
3.097955469E0,4.259224236E-1,5.024927482E-2,9.757930756E0
3.100366407E0,4.259224236E-1,8.135596663E-2,9.700503349E0
3.102777344E0,4.163511395E-1,8.853443712E-2,9.657432556E0
3.105188282E0,3.972085714E-1,1.196411327E-1,9.604789734E0
3.107599271E0,3.948157430E-1,1.411765367E-1,9.544969559E0
3.110010209E0,3.900300860E-1,1.531406492E-1,9.504291534E0
3.112421146E0,3.637090325E-1,1.842473447E-1,9.470791817E0
3.114832084E0,3.637090325E-1,1.914258152E-1,9.439684868E0
3.117243021E0,3.349951804E-1,2.368894368E-1,9.403793335E0
3.119653959E0,3.206382394E-1,2.799602449E-1,9.387042999E0
3.122064896E0,3.182454109E-1,2.943171859E-1,9.358329773E0
3.124475834E0,2.967100143E-1,3.230310678E-1,9.339186668E0
3.126886771E0,2.703889608E-1,3.421736360E-1,9.317651749E0
3.129297761E0,2.536391914E-1,3.541377485E-1,9.303294182E0
3.131708698E0,2.368894368E-1,3.876372576E-1,9.281759262E0
3.134119636E0,2.105683982E-1,4.139583111E-1,9.265008926E0
3.136530573E0,1.890329868E-1,4.426721931E-1,9.253045082E0
3.138941511E0,1.555334777E-1,4.713860750E-1,9.233902931E0
3.141352448E0,1.531406492E-1,4.881358147E-1,9.217152596E0
3.143763386E0,1.316052526E-1,5.335994363E-1,9.212367058E0
3.146174323E0,1.244267747E-1,5.479564071E-1,9.186046600E0
3.148585261E0,1.052841991E-1,5.814558864E-1,9.171689034E0
3.150996250E0,8.135596663E-2,6.125625968E-1,9.140582085E0
3.153407188E0,5.024927482E-2,6.436693072E-1,9.109476089E0
3.155818125E0,2.632104978E-2,6.675975323E-1,9.080761909E0
3.158229063E0,1.914258115E-2,6.867401004E-1,9.030512810E0
3.160640000E0,-4.785645287E-3,7.154539824E-1,8.989834785E0
3.163050938E0,-2.153540403E-2,7.513462901E-1,8.953942299E0
3.165461875E0,-4.785645381E-2,7.752745152E-1,8.915657043E0
3.167872813E0,-4.785645381E-2,7.992027402E-1,8.863015175E0
3.170283750E0,-5.982056633E-2,8.207381964E-1,8.805587769E0
3.172694740E0,-8.135596663E-2,8.542376757E-1,8.757730484E0
3.175105677E0,-9.810572863E-2,8.494520187E-1,8.702695847E0
3.177516615E0,-1.196411327E-1,8.733802438E-1,8.630910873E0
3.179927552E0,-1.244267747E-1,8.997012973E-1,8.573483467E0
3.182338490E0,-1.196411327E-1,9.236295223E-1,8.506484032E0
3.184749427E0,-1.435693651E-1,9.332008362E-1,8.441878319E0
3.187160365E0,-1.531406492E-1,9.547362328E-1,8.374878883E0
3.189571302E0,-1.627119333E-1,9.667003751E-1,8.312665939E0
3.191982292E0,-1.579262912E-1,9.714859724E-1,8.257631302E0
3.194393229E0,-1.818545163E-1,9.906286001E-1,8.193024635E0
3.196804167E0,-1.818545163E-1,1.002592683E0,8.137989998E0
3.199215104E0,-1.794617027E-1,1.021735311E0,8.063812256E0
3.201626042E0,-1.722832322E-1,1.043270707E0,8.003992081E0
3.204036979E0,-1.770688742E-1,1.055234790E0,7.944170952E0
3.206447917E0,-1.722832322E-1,1.076770186E0,7.889136314E0
3.208858854E0,-1.866401732E-1,1.083948612E0,7.848458290E0
3.211269792E0,-1.818545163E-1,1.086341500E0,7.788637638E0
3.213680729E0,-1.818545163E-1,1.098305583E0,7.745566845E0
3.216091719E0,-1.890329868E-1,1.112662554E0,7.695317745E0
3.218502657E0,-1.770688742E-1,1.115055323E0,7.659425259E0
3.220913594E0,-1.507478207E-1,1.143769264E0,7.625925541E0
3.223324532E0,-1.435693651E-1,1.160519004E0,7.599604607E0
3.225735469E0,-1.507478207E-1,1.155733347E0,7.556533813E0
3.228146407E0,-1.435693651E-1,1.160519004E0,7.539783955E0
3.230557344E0,-1.244267747E-1,1.186840057E0,7.513463020E0
3.232968282E0,-1.076770201E-1,1.201196909E0,7.487142086E0
3.235379219E0,-1.076770201E-1,1.225125194E0,7.484749317E0
3.237790209E0,-9.810572863E-2,1.227517962E0,7.482356548E0
3.240201146E0,-7.896314561E-2,1.237089276E0,7.472784996E0
3.242612084E0,-7.417750359E-2,1.253839016E0,7.456035137E0
3.245023021E0,-6.939185411E-2,1.249053478E0,7.458428383E0
3.247433959E0,-5.503492057E-2,1.253839016E0,7.453642368E0
3.249844896E0,-5.024927482E-2,1.270588875E0,7.475177765E0
3.252255834E0,-3.589234129E-2,1.294517040E0,7.484749317E0
3.254666771E0,-2.153540403E-2,1.325623751E0,7.506284714E0
3.257077709E0,-2.392822644E-3,1.318445325E0,7.513463020E0
3.259488646E0,9.571290575E-3,1.316052437E0,7.518248558E0
3.261899636E0,2.871387079E-2,1.339980721E0,7.527820110E0
3.264310573E0,5.503492057E-2,1.339980721E0,7.527820110E0
3.266721511E0,7.178468257E-2,1.351944804E0,7.546962738E0
3.269132448E0,8.135596663E-2,1.356730461E0,7.561319351E0
3.271543386E0,1.004985496E-1,1.354337573E0,7.566105366E0
3.273954323E0,1.148554832E-1,1.347159147E0,7.580461979E0
3.276365261E0,1.244267747E-1,1.354337573E0,7.597211838E0
3.278776250E0,1.483550072E-1,1.356730461E0,7.604390144E0
3.281187188E0,1.818545163E-1,1.368694544E0,7.611568928E0
3.283598125E0,1.986042857E-1,1.363908887E0,7.606783390E0
3.286009063E0,1.962114573E-1,1.368694544E0,7.613961697E0
3.288420000E0,2.177468538E-1,1.361516118E0,7.606783390E0
3.290830938E0,2.297109663E-1,1.342373490E0,7.609176159E0
3.293241875E0,2.440679073E-1,1.342373490E0,7.609176159E0
3.295652813E0,2.703889608E-1,1.323230863E0,7.613961697E0
3.298063750E0,2.967100143E-1,1.313659668E0,7.594819069E0
3.300474740E0,3.014956415E-1,1.304088354E0,7.585247993E0
3.302885677E0,3.086741269E-1,1.311266780E0,7.580461979E0
3.305296615E0,3.014956415E-1,1.301695466E0,7.592426300E0
3.307707552E0,3.182454109E-1,1.275374413E0,7.573283672E0
3.310118490E0,3.302095234E-1,1.241874933E0,7.551748276E0
3.312529427E0,3.373879790E-1,1.232303619E0,7.563712597E0
3.314940365E0,3.445664644E-1,1.225125194E0,7.554141045E0
3.317351302E0,3.541377485E-1,1.220339537E0,7.546962738E0
3.319762240E0,3.661018610E-1,1.172483087E0,7.549355507E0
3.322173229E0,3.517449200E-1,1.160519004E0,7.561319351E0
3.324584167E0,3.780659735E-1,1.138983607E0,7.563712597E0
3.326995104E0,3.900300860E-1,1.136590719E0,7.566105366E0
3.329406042E0,3.828516304E-1,1.119840980E0,7.563712597E0
3.331816979E0,3.756731451E-1,1.095912814E0,7.580461979E0
3.334227917E0,3.684946895E-1,1.083948612E0,7.609176159E0
3.336638854E0,3.684946895E-1,1.069591761E0,7.635497093E0
3.339049792E0,3.708875179E-1,1.036092162E0,7.652246952E0
3.341460729E0,3.756731451E-1,1.026520967E0,7.680960655E0
3.343871719E0,3.684946895E-1,9.930213690E-1,7.721638680E0
3.346282657E0,3.661018610E-1,9.834501147E-1,7.755138397E0
3.348693594E0,3.445664644E-1,9.571290612E-1,7.819744587E0
3.351104532E0,3.469592929E-1,9.355936646E-1,7.860422611E0
3.353515469E0,3.278166950E-1,9.260223508E-1,7.910671711E0
3.355926407E0,3.349951804E-1,9.116654396E-1,7.968099594E0
3.358337344E0,3.254238665E-1,8.877372146E-1,8.042277336E0
3.360748282E0,3.134597540E-1,8.685946465E-1,8.106883049E0
3.363159219E0,3.038884699E-1,8.662018180E-1,8.181060791E0
3.365570209E0,3.086741269E-1,8.374879360E-1,8.252845764E0
3.367981146E0,2.895315289E-1,8.159525394E-1,8.312665939E0
3.370392084E0,2.679961324E-1,8.183453679E-1,8.398807526E0
3.372803021E0,2.703889608E-1,7.920243144E-1,8.472985268E0
3.375213959E0,2.584248483E-1,7.704889178E-1,8.566305161E0
3.377624896E0,2.512463629E-1,7.465606928E-1,8.645268440E0
3.380035834E0,2.297109663E-1,7.250252366E-1,8.724231720E0
3.382446771E0,1.914258152E-1,7.130611539E-1,8.803194046E0
3.384857709E0,1.746760458E-1,6.867401004E-1,8.879764557E0
3.387268698E0,1.674975902E-1,6.460621357E-1,8.970691681E0
3.389679636E0,1.483550072E-1,6.173482537E-1,9.059226990E0
3.392090573E0,1.339980662E-1,5.910272002E-1,9.133403778E0
3.394501511E0,1.100698411E-1,5.551348329E-1,9.200403214E0
3.396912448E0,9.810572863E-2,5.527420044E-1,9.286544800E0
3.399323386E0,8.135596663E-2,5.407779217E-1,9.351150513E0
3.401734323E0,4.785645381E-2,5.192425251E-1,9.408578873E0
3.404145261E0,3.349951655E-2,4.833501875E-1,9.470791817E0
3.406556250E0,1.674975827E-2,4.570291340E-1,9.528220177E0
3.408967188E0,-4.785645287E-3,4.211367965E-1,9.600004196E0
3.411378125E0,-1.435693540E-2,3.900300860E-1,9.659825325E0
3.413789063E0,-4.307080805E-2,3.708875179E-1,9.710074425E0
3.416200000E0,-4.546362907E-2,3.517449200E-1,9.753145218E0
3.418610938E0,-6.699903309E-2,3.206382394E-1,9.810572624E0
3.421021875E0,-8.374879509E-2,3.230310678E-1,9.856036186E0
3.423432813E0,-9.571290761E-2,2.943171859E-1,9.908679008E0
3.425843750E0,-1.124626622E-1,2.727817893E-1,9.951749802E0
3.428254688E0,-1.316052526E-1,2.536391914E-1,9.987641335E0
3.430665677E0,-1.244267747E-1,2.273181528E-1,1.001156998E1
3.433076615E0,-1.531406492E-1,1.818545163E-1,1.004028416E1
3.435487552E0,-1.627119333E-1,1.627119333E-1,1.009053326E1
3.437898490E0,-1.627119333E-1,1.531406492E-1,1.014317513E1
3.440309427E0,-1.722832322E-1,1.268195957E-1,1.019103146E1
3.442720365E0,-1.914258152E-1,1.076770201E-1,1.022931671E1
3.445131302E0,-1.770688742E-1,8.614161611E-2,1.025803089E1
3.447542240E0,-1.698904037E-1,6.699903309E-2,1.029392338E1
3.449953229E0,-1.842473447E-1,5.742774159E-2,1.034177971E1
3.452364167E0,-1.866401732E-1,5.024927482E-2,1.039681435E1
3.454775104E0,-1.794617027E-1,1.196411345E-2,1.043749237E1
3.457186042E0,-1.962114573E-1,-1.674975827E-2,1.047099209E1
3.459596979E0,-1.986042857E-1,-3.349951655E-2,1.052363396E1
3.462007917E0,-1.842473447E-1,-3.589234129E-2,1.057149029E1
3.464418854E0,-1.938186288E-1,-6.221338734E-2,1.062413216E1
3.466829792E0,-1.842473447E-1,-8.614161611E-2,1.068395329E1
3.469240729E0,-1.722832322E-1,-9.571290761E-2,1.074377346E1
3.471651719E0,-1.698904037E-1,-1.148554832E-1,1.081555843E1
3.474062657E0,-1.651047617E-1,-1.316052526E-1,1.086580753E1
3.476473594E0,-1.435693651E-1,-1.651047617E-1,1.092323494E1
3.478884532E0,-1.316052526E-1,-1.603191197E-1,1.098784161E1
3.481295469E0,-1.316052526E-1,-1.531406492E-1,1.105962658E1
3.483706407E0,-1.196411327E-1,-1.818545163E-1,1.112183952E1
3.486117344E0,-8.614161611E-2,-1.866401732E-1,1.119362450E1
3.488528282E0,-7.417750359E-2,-1.986042857E-1,1.124148083E1
3.490939271E0,-4.546362907E-2,-2.392822653E-1,1.130369377E1
3.493350209E0,-3.589234129E-2,-2.392822653E-1,1.137547874E1
3.495761146E0,-1.914258115E-2,-2.321037948E-1,1.144726372E1
3.498172084E0,-2.392822644E-3,-2.608176768E-1,1.150947666E1
3.500583021E0,9.571290575E-3,-2.560320199E-1,1.158126163E1
3.502993959E0,2.871387079E-2,-2.584248483E-1,1.161954689E1
3.505404896E0,5.024927482E-2,-2.512463629E-1,1.168175983E1
3.507815834E0,7.178468257E-2,-2.656033039E-1,1.173679543E1
3.510226823E0,8.853443712E-2,-2.727817893E-1,1.179661560E1
3.512637761E0,1.268195957E-1,-2.751746178E-1,1.183011532E1
3.515048698E0,1.292124242E-1,-2.823530734E-1,1.187079334E1
3.517459636E0,1.483550072E-1,-2.991028428E-1,1.192104244E1
3.519870573E0,1.770688742E-1,-2.943171859E-1,1.195932770E1
3.522281511E0,2.009970993E-1,-3.038884699E-1,1.199522018E1
3.524692448E0,2.273181528E-1,-2.991028428E-1,1.201914787E1
3.527103386E0,2.560320199E-1,-2.967100143E-1,1.203589821E1
3.529514323E0,2.656033039E-1,-2.919243574E-1,1.205982590E1
3.531925313E0,2.847459018E-1,-2.991028428E-1,1.207657623E1
3.534336250E0,3.038884699E-1,-3.038884699E-1,1.209811115E1
3.536747188E0,3.206382394E-1,-2.991028428E-1,1.209332561E1
3.539158125E0,3.421736360E-1,-2.847459018E-1,1.209811115E1
3.541569063E0,3.541377485E-1,-3.014956415E-1,1.211725426E1
3.543980000E0,3.637090325E-1,-3.110669553E-1,1.211725426E1
3.546390938E0,3.708875179E-1,-2.895315289E-1,1.211246777E1
3.548801875E0,3.900300860E-1,-2.871387303E-1,1.211725426E1
3.551212813E0,4.067798555E-1,-2.727817893E-1,1.212203979E1
3.553623750E0,4.283152521E-1,-2.656033039E-1,1.212443256E1
3.556034740E0,4.378865361E-1,-2.464607358E-1,1.211007500E1
3.558445677E0,4.522434771E-1,-2.488535494E-1,1.210050392E1
3.560856615E0,4.498506486E-1,-2.488535494E-1,1.210050392E1
3.563267552E0,4.642075896E-1,-2.321037948E-1,1.211246777E1
3.565678490E0,4.737788737E-1,-2.177468538E-1,1.209811115E1
3.568089427E0,4.642075896E-1,-2.177468538E-1,1.209332561E1
3.570500365E0,4.689932466E-1,-1.986042857E-1,1.209093285E1
3.572911302E0,4.833501875E-1,-1.818545163E-1,1.208614731E1
3.575322292E0,4.785645306E-1,-1.674975902E-1,1.208614731E1
3.577733229E0,4.785645306E-1,-1.531406492E-1,1.210528946E1
3.580144167E0,4.450650215E-1,-1.579262912E-1,1.210528946E1
3.582555104E0,4.378865361E-1,-1.411765367E-1,1.210768223E1
3.584966042E0,4.354937077E-1,-1.196411327E-1,1.212443256E1
3.587376979E0,4.307080805E-1,-1.076770201E-1,1.213639641E1
3.589787917E0,4.091726840E-1,-8.135596663E-2,1.214596748E1
3.592198854E0,4.067798555E-1,-7.417750359E-2,1.217228889E1
3.594609844E0,3.996013701E-1,-5.982056633E-2,1.219621658E1
3.597020782E0,3.804588020E-1,-4.067798331E-2,1.220578861E1
3.599431719E0,3.756731451E-1,-1.914258115E-2,1.221535969E1
3.601842657E0,3.517449200E-1,-4.785645287E-3,1.223210907E1
3.604253594E0,3.302095234E-1,1.435693540E-2,1.226082325E1
3.606664532E0,3.134597540E-1,3.828516230E-2,1.228953743E1
3.609075469E0,2.871387303E-1,4.546362907E-2,1.229671574E1
3.611486407E0,2.608176768E-1,6.699903309E-2,1.234217930E1
3.613897344E0,2.297109663E-1,9.810572863E-2,1.236850071E1
3.616308334E0,2.129612118E-1,1.268195957E-1,1.239482117E1
3.618719271E0,1.986042857E-1,1.483550072E-1,1.242114258E1
3.621130209E0,1.770688742E-1,1.651047617E-1,1.244267750E1
3.623541146E0,1.483550072E-1,1.770688742E-1,1.243789196E1
3.625952084E0,1.339980662E-1,1.866401732E-1,1.247139168E1
3.628363021E0,1.052841991E-1,2.153540403E-1,1.247617722E1
3.630773959E0,9.092725813E-2,2.321037948E-1,1.248096275E1
3.633184896E0,7.178468257E-2,2.632105052E-1,1.250010586E1
3.635595886E0,3.828516230E-2,2.751746178E-1,1.248096275E1
3.638006823E0,2.392822690E-2,2.871387303E-1,1.248096275E1
3.640417761E0,-4.785645287E-3,3.134597540E-1,1.247378445E1
3.642828698E0,-2.871387079E-2,3.278166950E-1,1.246899891E1
3.645239636E0,-5.024927482E-2,3.565305769E-1,1.246899891E1
3.647650573E0,-5.982056633E-2,3.756731451E-1,1.244985580E1
3.650061511E0,-6.939185411E-2,3.780659735E-1,1.243549919E1
3.652472448E0,-7.417750359E-2,3.876372576E-1,1.241635704E1
3.654883386E0,-1.052841991E-1,4.019941986E-1,1.239003563E1
3.657294375E0,-1.268195957E-1,4.450650215E-1,1.238764286E1
3.659705313E0,-1.316052526E-1,4.618147612E-1,1.233500099E1
3.662116250E0,-1.387837082E-1,4.618147612E-1,1.230389404E1
3.664527188E0,-1.555334777E-1,4.833501875E-1,1.226800156E1
3.666938125E0,-1.627119333E-1,4.809573591E-1,1.222732353E1
3.669349063E0,-1.794617027E-1,5.048855543E-1,1.218903828E1
3.671760000E0,-1.651047617E-1,5.048855543E-1,1.214596748E1
3.674170938E0,-1.746760458E-1,5.240281820E-1,1.208614731E1
3.676581927E0,-1.746760458E-1,5.431707501E-1,1.205982590E1
3.678992865E0,-1.555334777E-1,5.359922647E-1,1.202154064E1
3.681403802E0,-1.698904037E-1,5.551348329E-1,1.196650600E1
3.683814740E0,-1.603191197E-1,5.718846321E-1,1.191625690E1
3.686225677E0,-1.507478207E-1,5.886343718E-1,1.188275719E1
3.688636615E0,-1.507478207E-1,5.934200287E-1,1.183011532E1
3.691047552E0,-1.459621787E-1,6.005984545E-1,1.177986622E1
3.693458490E0,-1.316052526E-1,6.053841114E-1,1.175115204E1
3.695869427E0,-1.292124242E-1,6.029912829E-1,1.170329571E1
3.698280417E0,-1.076770201E-1,6.077769399E-1,1.167218876E1
3.700691354E0,-9.571290761E-2,6.197410822E-1,1.164347458E1
3.703102292E0,-7.896314561E-2,6.173482537E-1,1.163151073E1
3.705513229E0,-6.221338734E-2,6.029912829E-1,1.160519028E1
3.707924167E0,-4.307080805E-2,6.125625968E-1,1.156690502E1
3.710335104E0,-2.871387079E-2,5.958128572E-1,1.154536915E1
3.712746042E0,-1.674975827E-2,6.173482537E-1,1.152861977E1
3.715156979E0,0.000000000E0,6.077769399E-1,1.151904774E1
3.717567969E0,2.153540403E-2,6.077769399E-1,1.149990559E1
3.719978907E0,3.349951655E-2,6.101697683E-1,1.149272728E1
3.722389844E0,6.460621208E-2,6.053841114E-1,1.148794174E1
3.724800782E0,8.135596663E-2,6.053841114E-1,1.148315620E1
3.727211719E0,9.092725813E-2,5.934200287E-1,1.145444202E1
3.729622657E0,1.316052526E-1,5.670989752E-1,1.146162033E1
3.732033594E0,1.483550072E-1,5.479564071E-1,1.144965649E1
3.734444532E0,1.770688742E-1,5.599204898E-1,1.143529987E1
3.736855521E0,1.914258152E-1,5.527420044E-1,1.142572784E1
3.739266459E0,2.081755698E-1,5.431707501E-1,1.141854954E1
3.741677396E0,2.344966233E-1,5.240281820E-1,1.139462185E1
3.744088334E0,2.751746178E-1,5.168496966E-1,1.138026428E1
3.746499271E0,2.823530734E-1,4.977070987E-1,1.137308598E1
3.748910209E0,2.943171859E-1,4.833501875E-1,1.136351490E1
3.751321146E0,3.278166950E-1,4.642075896E-1,1.133001518E1
3.753732084E0,3.421736360E-1,4.450650215E-1,1.132044411E1
3.756143021E0,3.684946895E-1,4.283152521E-1,1.129651546E1
3.758554011E0,3.684946895E-1,4.235295951E-1,1.126780224E1
3.760964948E0,3.972085714E-1,4.091726840E-1,1.126301575E1
3.763375886E0,3.876372576E-1,3.780659735E-1,1.124148083E1
3.765786823E0,3.996013701E-1,3.565305769E-1,1.120319557E1
3.768197761E0,4.187439680E-1,3.254238665E-1,1.116969585E1
3.770608698E0,4.307080805E-1,3.206382394E-1,1.113858986E1
3.773019636E0,4.331009090E-1,2.967100143E-1,1.110748291E1
3.775430573E0,4.426721931E-1,2.608176768E-1,1.105962658E1
3.777841563E0,4.426721931E-1,2.249253243E-1,1.102851963E1
3.780252500E0,4.498506486E-1,2.081755698E-1,1.099980545E1
3.782663438E0,4.546363056E-1,1.914258152E-1,1.096869946E1
3.785074375E0,4.426721931E-1,1.627119333E-1,1.093041420E1
3.787485313E0,4.402793646E-1,1.387837082E-1,1.090887833E1
3.789896250E0,4.450650215E-1,1.196411327E-1,1.088016415E1
3.792307188E0,4.307080805E-1,9.332008660E-2,1.084427261E1
3.794718125E0,4.378865361E-1,8.135596663E-2,1.082512951E1
3.797129063E0,4.283152521E-1,6.460621208E-2,1.080838013E1
3.799540052E0,4.259224236E-1,2.153540403E-2,1.078684425E1
3.801950990E0,4.163511395E-1,-4.785645287E-3,1.076052380E1
3.804361927E0,3.780659735E-1,-2.153540403E-2,1.075095177E1
3.806772865E0,3.732803464E-1,-3.828516230E-2,1.072941685E1
3.809183802E0,3.876372576E-1,-8.374879509E-2,1.073898792E1
3.811594740E0,3.589234054E-1,-1.124626622E-1,1.072223854E1
3.814005677E0,3.421736360E-1,-1.268195957E-1,1.071027374E1
3.816416615E0,3.326023519E-1,-1.507478207E-1,1.072463131E1
3.818827552E0,3.302095234E-1,-1.651047617E-1,1.072941685E1
3.821238542E0,3.158525825E-1,-2.033899277E-1,1.075095177E1
3.823649479E0,2.991028428E-1,-2.392822653E-1,1.075573826E1
3.826060417E0,2.679961324E-1,-2.440679073E-1,1.076770210E1
3.828471354E0,2.440679073E-1,-2.727817893E-1,1.077488041E1
3.830882292E0,2.321037948E-1,-3.086741269E-1,1.079402256E1
3.833293229E0,2.201396823E-1,-3.230310678E-1,1.080120182E1
3.835704167E0,1.938186288E-1,-3.326023519E-1,1.082273674E1
3.838115157E0,1.698904037E-1,-3.445664644E-1,1.083470058E1
3.840526094E0,1.531406492E-1,-3.708875179E-1,1.085862923E1
3.842937032E0,1.459621787E-1,-3.756731451E-1,1.087537861E1
3.845347969E0,1.220339537E-1,-4.163511395E-1,1.088973618E1
3.847758907E0,9.092725813E-2,-4.354937077E-1,1.089691448E1
3.850169844E0,8.374879509E-2,-4.474578202E-1,1.092084217E1
3.852580782E0,9.571290761E-2,-4.570291340E-1,1.091605663E1
3.854991719E0,6.221338734E-2,-4.809573591E-1,1.092802143E1
3.857402657E0,3.828516230E-2,-5.192425251E-1,1.094477081E1
3.859813646E0,2.632104978E-2,-5.359922647E-1,1.094716358E1
3.862224584E0,1.674975827E-2,-5.575276613E-1,1.095434189E1
3.864635521E0,0.000000000E0,-5.694918036E-1,1.095673466E1
3.867046459E0,-4.785645287E-3,-5.790630579E-1,1.095912743E1
3.869457396E0,-2.153540403E-2,-5.862415433E-1,1.094955635E1
3.871868334E0,-3.349951655E-2,-6.173482537E-1,1.093998528E1
3.874279271E0,-5.024927482E-2,-6.269195080E-1,1.091844940E1
3.876690261E0,-7.896314561E-2,-6.364908218E-1,1.090409279E1
3.879101198E0,-7.896314561E-2,-6.484549642E-1,1.088734341E1
3.881512136E0,-9.810572863E-2,-6.580262184E-1,1.087537861E1
3.883923073E0,-1.004985496E-1,-6.771687865E-1,1.084905815E1
3.886334011E0,-1.100698411E-1,-6.699903607E-1,1.080838013E1
3.888744948E0,-1.124626622E-1,-6.795616150E-1,1.078684425E1
3.891155886E0,-1.100698411E-1,-6.891329288E-1,1.075095177E1
3.893566823E0,-1.196411327E-1,-7.226324677E-1,1.070548820E1
3.895977761E0,-1.220339537E-1,-7.250252366E-1,1.066720295E1
3.898388750E0,-1.124626622E-1,-7.345965505E-1,1.064088249E1
3.900799688E0,-1.244267747E-1,-7.393822074E-1,1.059781170E1
3.903210625E0,-1.196411327E-1,-7.393822074E-1,1.056191921E1
3.905621563E0,-1.100698411E-1,-7.298108935E-1,1.050927734E1
3.908032500E0,-1.220339537E-1,-7.585247755E-1,1.047577763E1
3.910443438E0,-1.076770201E-1,-7.776673436E-1,1.045184898E1
3.912854375E0,-1.052841991E-1,-7.800601721E-1,1.040399265E1
3.915265365E0,-1.100698411E-1,-7.776673436E-1,1.037049294E1
3.917676302E0,-9.332008660E-2,-7.824530005E-1,1.034177971E1
3.920087240E0,-9.571290761E-2,-7.776673436E-1,1.030110168E1
3.922498177E0,-9.571290761E-2,-7.992027402E-1,1.028435135E1
3.924909115E0,-8.614161611E-2,-8.039883971E-1,1.025563812E1
3.927320052E0,-7.896314561E-2,-7.992027402E-1,1.023649502E1
3.929730990E0,-7.896314561E-2,-7.944171429E-1,1.021735287E1
3.932141927E0,-5.503492057E-2,-7.800601721E-1,1.019103146E1
3.934552917E0,-5.264209956E-2,-7.968099117E-1,1.015992451E1
3.936963854E0,-3.589234129E-2,-8.111668825E-1,1.013360405E1
3.939374792E0,-4.067798331E-2,-8.183453679E-1,1.013838959E1
3.941785729E0,-3.349951655E-2,-8.231309652E-1,1.011924744E1
3.944196667E0,-1.196411345E-2,-8.159525394E-1,1.010488987E1
3.946607604E0,-2.392822644E-3,-8.087740541E-1,1.010249710E1
3.949018542E0,1.435693540E-2,-8.255237937E-1,1.008574772E1
3.951429479E0,1.914258115E-2,-8.183453679E-1,1.007856941E1
3.953840417E0,2.871387079E-2,-8.231309652E-1,1.006899738E1
3.956251407E0,3.828516230E-2,-8.303094506E-1,1.006899738E1
3.958662344E0,5.982056633E-2,-8.470591903E-1,1.006421185E1
3.961073282E0,8.614161611E-2,-8.303094506E-1,1.006181908E1
3.963484219E0,8.853443712E-2,-8.350951076E-1,1.005942631E1
3.965895157E0,1.004985496E-1,-8.542376757E-1,1.004985523E1
3.968306094E0,1.196411327E-1,-8.494520187E-1,1.003789139E1
3.970717032E0,1.196411327E-1,-8.470591903E-1,1.004028416E1
3.973128021E0,1.435693651E-1,-8.422735929E-1,1.004028416E1
3.975538959E0,1.459621787E-1,-8.590233326E-1,1.002831936E1
3.977949896E0,1.531406492E-1,-8.470591903E-1,1.001156998E1
3.980360834E0,1.794617027E-1,-8.638089895E-1,1.000439167E1
3.982771771E0,1.890329868E-1,-8.398807645E-1,9.980463028E0
3.985182709E0,1.890329868E-1,-8.350951076E-1,9.980463028E0
3.987593646E0,2.129612118E-1,-8.494520187E-1,9.963713646E0
3.990004584E0,2.177468538E-1,-8.374879360E-1,9.954142570E0
3.992415521E0,2.321037948E-1,-8.446664214E-1,9.927821159E0
3.994826511E0,2.512463629E-1,-8.446664214E-1,9.899106979E0
3.997237448E0,2.608176768E-1,-8.398807645E-1,9.877572060E0
3.999648386E0,2.464607358E-1,-8.446664214E-1,9.851250648E0
4.002059323E0,2.679961324E-1,-8.279166222E-1,9.820143700E0
4.004470261E0,2.751746178E-1,-8.111668825E-1,9.798608780E0
4.006881198E0,2.871387303E-1,-8.231309652E-1,9.769894600E0
4.009292136E0,2.943171859E-1,-8.135597110E-1,9.741181374E0
4.011703073E0,3.014956415E-1,-8.063812256E-1,9.710074425E0
4.014114063E0,3.158525825E-1,-8.111668825E-1,9.688538551E0
4.016525000E0,3.134597540E-1,-8.039883971E-1,9.647860527E0
4.018935938E0,3.278166950E-1,-7.848458290E-1,9.628718376E0
4.021346875E0,3.230310678E-1,-7.824530005E-1,9.607182503E0
4.023757813E0,3.421736360E-1,-7.633104324E-1,9.578469276E0
4.026168750E0,3.373879790E-1,-7.561319470E-1,9.542576790E0
4.028579688E0,3.469592929E-1,-7.513462901E-1,9.518648148E0
4.030990625E0,3.230310678E-1,-7.465606928E-1,9.487542152E0
4.033401615E0,3.206382394E-1,-7.609176040E-1,9.468399048E0
4.035812552E0,3.302095234E-1,-7.465606928E-1,9.461220741E0
4.038223490E0,3.421736360E-1,-7.298108935E-1,9.446864128E0
4.040634427E0,3.373879790E-1,-7.178468108E-1,9.418149948E0
4.043045365E0,3.326023519E-1,-7.082754970E-1,9.406186104E0
4.045456302E0,3.254238665E-1,-7.058826685E-1,9.394221306E0
4.047867240E0,3.445664644E-1,-6.891329288E-1,9.399007797E0
4.050278229E0,3.326023519E-1,-6.843472719E-1,9.396614075E0
4.052689167E0,3.302095234E-1,-6.867401004E-1,9.401400566E0
4.055100104E0,3.445664644E-1,-6.699903607E-1,9.410971642E0
4.057511042E0,3.517449200E-1,-6.699903607E-1,9.408578873E0
4.059921979E0,3.230310678E-1,-6.556333899E-1,9.432506561E0
4.062332917E0,3.182454109E-1,-6.460621357E-1,9.437292099E0
4.064743854E0,2.991028428E-1,-6.364908218E-1,9.446864128E0
4.067154792E0,2.871387303E-1,-6.508477330E-1,9.466006279E0
4.069565729E0,2.895315289E-1,-6.460621357E-1,9.492327690E0
4.071976719E0,2.775674164E-1,-6.293123364E-1,9.504291534E0
4.074387657E0,2.560320199E-1,-6.197410822E-1,9.521040916E0
4.076798594E0,2.584248483E-1,-6.197410822E-1,9.544969559E0
4.079209532E0,2.321037948E-1,-6.101697683E-1,9.578469276E0
4.081620469E0,2.321037948E-1,-5.982056856E-1,9.609575272E0
4.084031407E0,2.392822653E-1,-5.790630579E-1,9.623932838E0
4.086442344E0,2.129612118E-1,-5.647061467E-1,9.647860527E0
4.088853282E0,1.914258152E-1,-5.407779217E-1,9.681360245E0
4.091264271E0,2.009970993E-1,-5.359922647E-1,9.710074425E0
4.093675209E0,1.698904037E-1,-5.216353536E-1,9.736394882E0
4.096086146E0,1.507478207E-1,-5.048855543E-1,9.755537987E0
4.098497084E0,1.411765367E-1,-5.144568682E-1,9.767501831E0
4.100908021E0,1.244267747E-1,-4.881358147E-1,9.793823242E0
4.103318959E0,1.220339537E-1,-4.809573591E-1,9.815358162E0
4.105729896E0,1.172483116E-1,-4.666004181E-1,9.829715729E0
4.108140834E0,9.092725813E-2,-4.450650215E-1,9.851250648E0
4.110551823E0,8.135596663E-2,-4.378865361E-1,9.868000984E0
4.112962761E0,6.939185411E-2,-4.331009090E-1,9.889535904E0
4.115373698E0,6.460621208E-2,-4.235295951E-1,9.894321442E0
4.117784636E0,3.349951655E-2,-4.259224236E-1,9.896714211E0
4.120195573E0,2.632104978E-2,-3.996013701E-1,9.887143135E0
4.122606511E0,9.571290575E-3,-3.661018610E-1,9.879964828E0
4.125017448E0,1.914258115E-2,-3.613162339E-1,9.896714211E0
4.127428438E0,1.674975827E-2,-3.517449200E-1,9.896714211E0
4.129839375E0,-7.178467698E-3,-3.373879790E-1,9.899106979E0
4.132250313E0,-2.153540403E-2,-3.134597540E-1,9.908679008E0
4.134661250E0,-3.589234129E-2,-3.134597540E-1,9.908679008E0
4.137072188E0,-4.785645381E-2,-3.086741269E-1,9.896714211E0
4.139483125E0,-6.460621208E-2,-2.895315289E-1,9.894321442E0
4.141894063E0,-7.896314561E-2,-2.895315289E-1,9.896714211E0
4.144305000E0,-7.178468257E-2,-2.679961324E-1,9.891928673E0
4.146715938E0,-5.264209956E-2,-2.368894368E-1,9.894321442E0
4.149126927E0,-6.460621208E-2,-2.368894368E-1,9.901499748E0
4.151537865E0,-8.135596663E-2,-2.297109663E-1,9.899106979E0
4.153948802E0,-8.853443712E-2,-2.129612118E-1,9.908679008E0
4.156359740E0,-8.374879509E-2,-1.866401732E-1,9.899106979E0
4.158770677E0,-9.092725813E-2,-1.770688742E-1,9.906285286E0
4.161181615E0,-1.124626622E-1,-1.722832322E-1,9.913464546E0
4.163592552E0,-9.571290761E-2,-1.531406492E-1,9.918250084E0
4.166003542E0,-8.853443712E-2,-1.483550072E-1,9.925428391E0
4.168414479E0,-8.135596663E-2,-1.363908947E-1,9.934999466E0
4.170825417E0,-8.374879509E-2,-1.124626622E-1,9.949356079E0
4.173236354E0,-1.124626622E-1,-1.028913707E-1,9.978070259E0
4.175647292E0,-1.052841991E-1,-9.571290761E-2,9.992427826E0
4.178058229E0,-8.374879509E-2,-6.699903309E-2,1.000917721E1
4.180469167E0,-8.135596663E-2,-5.024927482E-2,1.003071213E1
4.182880104E0,-7.896314561E-2,-2.632104978E-2,1.004985523E1
4.185291042E0,-8.374879509E-2,-1.435693540E-2,1.007856941E1
4.187702032E0,-6.460621208E-2,-2.392822644E-3,1.010728264E1
4.190112969E0,-6.221338734E-2,1.674975827E-2,1.013838959E1
4.192523907E0,-5.024927482E-2,4.785645287E-3,1.016231823E1
4.194934844E0,-3.110669367E-2,2.153540403E-2,1.018385315E1
4.197345782E0,-2.871387079E-2,3.110669367E-2,1.022692394E1
4.199756719E0,-7.178467698E-3,4.785645381E-2,1.024845982E1
4.202167657E0,-7.178467698E-3,6.699903309E-2,1.029392338E1
4.204578646E0,1.674975827E-2,6.460621208E-2,1.031067276E1
4.206989584E0,2.632104978E-2,7.417750359E-2,1.032502937E1
4.209400521E0,4.067798331E-2,9.810572863E-2,1.035135078E1
4.211811459E0,4.546362907E-2,1.076770201E-1,1.038245773E1
4.214222396E0,7.178468257E-2,1.124626622E-1,1.041595650E1
4.216633334E0,9.092725813E-2,1.292124242E-1,1.045663452E1
4.219044271E0,9.571290761E-2,1.435693651E-1,1.047099209E1
4.221455209E0,1.196411327E-1,1.555334777E-1,1.050449181E1
4.223866198E0,1.316052526E-1,1.555334777E-1,1.053081226E1
4.226277136E0,1.674975902E-1,1.722832322E-1,1.055234814E1
4.228688073E0,1.914258152E-1,1.722832322E-1,1.058584690E1
4.231099011E0,1.746760458E-1,1.818545163E-1,1.060020447E1
4.233509948E0,1.914258152E-1,1.890329868E-1,1.060499001E1
4.235920886E0,2.177468538E-1,1.986042857E-1,1.062652493E1
4.238331823E0,2.392822653E-1,1.914258152E-1,1.065045357E1
4.240742813E0,2.512463629E-1,2.033899277E-1,1.066002464E1
4.243153750E0,2.703889608E-1,2.033899277E-1,1.066959572E1
4.245564688E0,2.847459018E-1,2.153540403E-1,1.069352436E1
4.247975625E0,2.967100143E-1,2.201396823E-1,1.070548820E1
4.250386563E0,3.134597540E-1,2.321037948E-1,1.072463131E1
4.252797500E0,3.349951804E-1,2.225325108E-1,1.075813103E1
4.255208438E0,3.565305769E-1,2.321037948E-1,1.076770210E1
4.257619375E0,3.661018610E-1,2.464607358E-1,1.078445148E1
4.260030365E0,3.684946895E-1,2.584248483E-1,1.078684425E1
4.262441302E0,3.708875179E-1,2.608176768E-1,1.081077290E1
4.264852240E0,3.828516304E-1,2.727817893E-1,1.084905815E1
4.267263177E0,3.924229145E-1,2.823530734E-1,1.087777138E1
4.269674115E0,3.948157430E-1,2.775674164E-1,1.088973618E1
4.272085052E0,4.067798555E-1,2.679961324E-1,1.090170002E1
4.274495990E0,4.211367965E-1,2.584248483E-1,1.092802143E1
4.276906927E0,4.163511395E-1,2.727817893E-1,1.096152020E1
4.279317917E0,4.211367965E-1,2.656033039E-1,1.099023438E1
4.281728854E0,4.235295951E-1,2.632105052E-1,1.102373409E1
4.284139792E0,4.235295951E-1,2.727817893E-1,1.106680489E1
4.286550729E0,4.067798555E-1,2.584248483E-1,1.110030460E1
4.288961667E0,4.163511395E-1,2.584248483E-1,1.113858986E1
4.291372604E0,4.211367965E-1,2.440679073E-1,1.117926693E1
4.293783542E0,4.139583111E-1,2.368894368E-1,1.121515942E1
4.296194532E0,4.091726840E-1,2.392822653E-1,1.125583744E1
4.298605469E0,3.924229145E-1,2.368894368E-1,1.130848026E1
4.301016407E0,3.900300860E-1,2.225325108E-1,1.136830044E1
4.303427344E0,3.852444589E-1,2.201396823E-1,1.141376400E1
4.305838282E0,3.732803464E-1,2.177468538E-1,1.147119141E1
4.308249219E0,3.589234054E-1,2.033899277E-1,1.152622700E1
4.310660157E0,3.445664644E-1,1.914258152E-1,1.158365440E1
4.313071146E0,3.182454109E-1,2.009970993E-1,1.164826107E1
4.315482032E0,3.182454109E-1,1.890329868E-1,1.169611740E1
4.317893021E0,3.038884699E-1,1.746760458E-1,1.175354481E1
4.320303959E0,2.799602449E-1,1.674975902E-1,1.182054424E1
4.322714896E0,2.775674164E-1,1.507478207E-1,1.188275719E1
4.325125834E0,2.536391914E-1,1.483550072E-1,1.193061352E1
4.327536771E0,2.392822653E-1,1.411765367E-1,1.199282742E1
4.329947709E0,2.249253243E-1,1.387837082E-1,1.204546928E1
4.332358698E0,2.033899277E-1,1.124626622E-1,1.208614731E1
4.334769636E0,1.890329868E-1,1.124626622E-1,1.213878918E1
4.337180573E0,1.818545163E-1,8.135596663E-2,1.219143105E1
4.339591511E0,1.674975902E-1,7.657032460E-2,1.224407387E1
4.342002448E0,1.411765367E-1,5.742774159E-2,1.229671574E1
4.344413386E0,1.196411327E-1,5.024927482E-2,1.233500099E1
4.346824323E0,9.092725813E-2,5.024927482E-2,1.239003563E1
4.349235261E0,7.896314561E-2,4.067798331E-2,1.242353535E1
4.351646250E0,7.178468257E-2,0.000000000E0,1.247378445E1
4.354057188E0,5.982056633E-2,-1.196411345E-2,1.250010586E1
4.356468125E0,4.067798331E-2,-1.196411345E-2,1.253360462E1
4.358879063E0,9.571290575E-3,-2.392822690E-2,1.257667542E1
4.361290000E0,9.571290575E-3,-1.674975827E-2,1.259342575E1
4.363700938E0,-1.914258115E-2,-4.546362907E-2,1.262692547E1
4.366111875E0,-4.067798331E-2,-6.221338734E-2,1.264606762E1
4.368522813E0,-4.067798331E-2,-8.135596663E-2,1.266521072E1
4.370933802E0,-6.221338734E-2,-9.810572863E-2,1.268913841E1
4.373344740E0,-5.024927482E-2,-1.220339537E-1,1.271545982E1
4.375755677E0,-5.742774159E-2,-1.411765367E-1,1.274417305E1
4.378166615E0,-6.221338734E-2,-1.507478207E-1,1.272981644E1
4.380577552E0,-7.178468257E-2,-1.603191197E-1,1.274656582E1
4.382988490E0,-8.374879509E-2,-1.722832322E-1,1.276810169E1
4.385399427E0,-8.614161611E-2,-1.866401732E-1,1.276570892E1
4.387810417E0,-7.417750359E-2,-1.890329868E-1,1.276810169E1
4.390221354E0,-9.332008660E-2,-2.105683982E-1,1.277767277E1
4.392632292E0,-9.332008660E-2,-2.201396823E-1,1.278006554E1
4.395043229E0,-9.571290761E-2,-2.201396823E-1,1.278006554E1
4.397454167E0,-8.853443712E-2,-2.392822653E-1,1.278006554E1
4.399865104E0,-8.853443712E-2,-2.536391914E-1,1.277528000E1
4.402276042E0,-7.896314561E-2,-2.584248483E-1,1.277528000E1
4.404686979E0,-7.896314561E-2,-2.751746178E-1,1.278006554E1
4.407097969E0,-5.982056633E-2,-2.871387303E-1,1.278485107E1
4.409508907E0,-4.067798331E-2,-2.799602449E-1,1.278724384E1
4.411919844E0,-5.264209956E-2,-2.991028428E-1,1.278006554E1
4.414330782E0,-3.589234129E-2,-3.206382394E-1,1.278245831E1
4.416741719E0,-2.392822690E-2,-3.349951804E-1,1.278485107E1
4.419152657E0,-4.785645287E-3,-3.421736360E-1,1.278245831E1
4.421563594E0,2.392822644E-3,-3.349951804E-1,1.277288723E1
4.423974584E0,1.196411345E-2,-3.493520916E-1,1.276570892E1
4.426385521E0,2.392822690E-2,-3.517449200E-1,1.277288723E1
4.428796459E0,4.785645381E-2,-3.541377485E-1,1.278245831E1
4.431207396E0,5.024927482E-2,-3.589234054E-1,1.278485107E1
4.433618334E0,7.896314561E-2,-3.613162339E-1,1.276570892E1
4.436029271E0,8.374879509E-2,-3.637090325E-1,1.276331615E1
4.438440209E0,9.810572863E-2,-3.708875179E-1,1.277049446E1
4.440851146E0,1.292124242E-1,-3.828516304E-1,1.275374508E1
4.443262136E0,1.435693651E-1,-3.900300860E-1,1.273938751E1
4.445673073E0,1.603191197E-1,-3.972085714E-1,1.273220921E1
4.448084011E0,1.818545163E-1,-3.948157430E-1,1.272981644E1
4.450494948E0,2.009970993E-1,-3.900300860E-1,1.272024536E1
4.452905886E0,2.009970993E-1,-4.067798555E-1,1.270349503E1
4.455316823E0,2.225325108E-1,-3.852444589E-1,1.268674564E1
4.457727761E0,2.344966233E-1,-3.828516304E-1,1.264846039E1
4.460138750E0,2.584248483E-1,-3.900300860E-1,1.261496067E1
4.462549688E0,2.775674164E-1,-3.876372576E-1,1.259342575E1
4.464960625E0,2.943171859E-1,-3.828516304E-1,1.256710434E1
4.467371563E0,3.182454109E-1,-3.972085714E-1,1.253360462E1
4.469782500E0,3.206382394E-1,-3.756731451E-1,1.249053383E1
4.472193438E0,3.206382394E-1,-3.828516304E-1,1.244746304E1
4.474604375E0,3.373879790E-1,-3.732803464E-1,1.241635704E1
4.477015313E0,3.517449200E-1,-3.445664644E-1,1.237328625E1
4.479426302E0,3.780659735E-1,-3.349951804E-1,1.233021545E1
4.481837240E0,3.852444589E-1,-3.110669553E-1,1.229432297E1
4.484248177E0,3.876372576E-1,-3.014956415E-1,1.223450184E1
4.486659115E0,3.972085714E-1,-3.038884699E-1,1.218425274E1
4.489070052E0,3.972085714E-1,-2.871387303E-1,1.213639641E1
4.491480990E0,3.852444589E-1,-2.967100143E-1,1.209571838E1
4.493891927E0,3.948157430E-1,-2.799602449E-1,1.204546928E1
4.496302865E0,3.948157430E-1,-2.632105052E-1,1.198564816E1
4.498713854E0,3.996013701E-1,-2.440679073E-1,1.193539906E1
4.501124792E0,4.115654826E-1,-2.344966233E-1,1.188754272E1
4.503535729E0,3.948157430E-1,-2.225325108E-1,1.183490086E1
4.505946667E0,3.924229145E-1,-2.009970993E-1,1.179422283E1
4.508357604E0,3.876372576E-1,-1.938186288E-1,1.175115204E1
4.510768542E0,3.804588020E-1,-1.651047617E-1,1.169851017E1
4.513179479E0,3.708875179E-1,-1.627119333E-1,1.164826107E1
4.515590469E0,3.732803464E-1,-1.555334777E-1,1.160279655E1
4.518001407E0,3.637090325E-1,-1.100698411E-1,1.154058361E1
4.520412344E0,3.445664644E-1,-9.810572863E-2,1.151426220E1
4.522823282E0,3.493520916E-1,-8.374879509E-2,1.147837067E1
4.525234219E0,3.421736360E-1,-5.503492057E-2,1.144487095E1
4.527645157E0,3.349951804E-1,-3.828516230E-2,1.138983536E1
4.530056094E0,3.134597540E-1,-2.632104978E-2,1.135633659E1
4.532467084E0,2.943171859E-1,-9.571290575E-3,1.132044411E1
4.534878021E0,2.703889608E-1,4.785645287E-3,1.126780224E1
4.537288959E0,2.584248483E-1,3.110669367E-2,1.124865913E1
4.539699896E0,2.512463629E-1,5.742774159E-2,1.121037388E1
4.542110834E0,2.344966233E-1,7.657032460E-2,1.117448139E1
4.544521771E0,2.153540403E-1,9.332008660E-2,1.115294647E1
4.546932709E0,1.890329868E-1,1.268195957E-1,1.110509014E1
4.549343646E0,1.770688742E-1,1.459621787E-1,1.107398319E1
4.551754636E0,1.651047617E-1,1.698904037E-1,1.104766178E1
4.554165573E0,1.507478207E-1,1.866401732E-1,1.101894855E1
4.556576511E0,1.220339537E-1,2.009970993E-1,1.099023438E1
4.558987448E0,9.092725813E-2,2.177468538E-1,1.096152020E1
4.561398386E0,8.374879509E-2,2.273181528E-1,1.091844940E1
4.563809323E0,7.417750359E-2,2.632105052E-1,1.087059307E1
4.566220261E0,4.785645381E-2,2.967100143E-1,1.081555843E1
4.568631250E0,3.110669367E-2,3.206382394E-1,1.078205872E1
4.571042188E0,3.589234129E-2,3.302095234E-1,1.075095177E1
4.573453125E0,4.785645287E-3,3.565305769E-1,1.069591713E1
4.575864063E0,-7.178467698E-3,3.637090325E-1,1.064327526E1
4.578275000E0,-2.153540403E-2,4.067798555E-1,1.059063339E1
4.580685938E0,-3.589234129E-2,4.235295951E-1,1.052602673E1
4.583096875E0,-3.110669367E-2,4.426721931E-1,1.047817039E1
4.585507813E0,-4.785645381E-2,4.618147612E-1,1.042313576E1
4.587918802E0,-6.221338734E-2,4.905286431E-1,1.036570740E1
4.590329740E0,-5.024927482E-2,5.096712112E-1,1.029392338E1
4.592740677E0,-6.460621208E-2,5.288137794E-1,1.021496010E1
4.595151615E0,-7.178468257E-2,5.312066078E-1,1.016949654E1
4.597562552E0,-7.657032460E-2,5.575276613E-1,1.010967541E1
4.599973490E0,-9.092725813E-2,6.053841114E-1,1.004506969E1
4.602384479E0,-9.571290761E-2,6.005984545E-1,9.994820595E0
4.604795417E0,-1.076770201E-1,6.149554253E-1,9.932606697E0
4.607206354E0,-1.028913707E-1,6.245267391E-1,9.858428955E0
4.609617292E0,-9.571290761E-2,6.364908218E-1,9.796216011E0
4.612028229E0,-1.028913707E-1,6.556333899E-1,9.736394882E0
4.614439167E0,-1.004985496E-1,6.723831892E-1,9.690931320E0
4.616850104E0,-1.052841991E-1,6.963114142E-1,9.623932838E0
4.619261042E0,-9.810572863E-2,7.178468108E-1,9.556933403E0
4.621672032E0,-9.810572863E-2,7.345965505E-1,9.489934921E0
4.624082969E0,-9.092725813E-2,7.609176040E-1,9.439684868E0
4.626493907E0,-8.853443712E-2,7.680960894E-1,9.396614075E0
4.628904844E0,-7.896314561E-2,7.824530005E-1,9.351150513E0
4.631315782E0,-9.332008660E-2,7.824530005E-1,9.288937569E0
4.633726719E0,-8.135596663E-2,8.087740541E-1,9.245866776E0
4.636137657E0,-6.939185411E-2,8.159525394E-1,9.183652878E0
4.638548646E0,-6.939185411E-2,8.374879360E-1,9.142974854E0
4.640959584E0,-4.307080805E-2,8.374879360E-1,9.099904060E0
4.643370521E0,-1.914258115E-2,8.518448472E-1,9.059226990E0
4.645781459E0,-1.435693540E-2,8.733802438E-1,9.011369705E0
4.648192396E0,-7.178467698E-3,8.709874153E-1,8.982656479E0
4.650603334E0,-9.571290575E-3,8.877372146E-1,8.946763992E0
4.653014271E0,-1.196411345E-2,9.044869542E-1,8.906085968E0
4.655425261E0,1.674975827E-2,9.092726111E-1,8.886942863E0
4.657836198E0,1.435693540E-2,9.260223508E-1,8.836693764E0
4.660247136E0,2.632104978E-2,9.236295223E-1,8.805587769E0
4.662658073E0,4.785645381E-2,9.403793216E-1,8.776873589E0
4.665069011E0,5.264209956E-2,9.451649189E-1,8.743373871E0
4.667479948E0,5.742774159E-2,9.619147182E-1,8.705088615E0
4.669890886E0,8.374879509E-2,9.738788009E-1,8.676374435E0
4.672301875E0,8.374879509E-2,9.643075466E-1,8.657232285E0
4.674712813E0,9.092725813E-2,9.762716293E-1,8.626125336E0
4.677123750E0,1.052841991E-1,9.858429432E-1,8.595019341E0
4.679534688E0,1.100698411E-1,9.930213690E-1,8.566305161E0
4.681945625E0,1.459621787E-1,1.009771109E0,8.547162056E0
4.684356563E0,1.555334777E-1,1.012163997E0,8.518448830E0
4.686767500E0,1.674975902E-1,1.021735311E0,8.494520187E0
4.689178490E0,1.938186288E-1,1.040877819E0,8.472985268E0
4.691589427E0,1.962114573E-1,1.043270707E0,8.425128937E0
4.694000365E0,2.033899277E-1,1.033699393E0,8.391629219E0
4.696411302E0,2.105683982E-1,1.021735311E0,8.367700577E0
4.698822240E0,2.105683982E-1,1.026520967E0,8.324629784E0
4.701233177E0,2.201396823E-1,1.026520967E0,8.293522835E0
4.703644115E0,2.153540403E-1,1.026520967E0,8.257631302E0
4.706055052E0,2.297109663E-1,1.043270707E0,8.243273735E0
4.708465990E0,2.464607358E-1,1.048056364E0,8.221738815E0
4.710876979E0,2.536391914E-1,1.040877819E0,8.183453560E0
4.713287917E0,2.536391914E-1,1.031306505E0,8.147561073E0
4.715698854E0,2.679961324E-1,1.033699393E0,8.118846893E0
4.718109792E0,2.799602449E-1,1.038485050E0,8.099704742E0
4.720520729E0,2.919243574E-1,1.028913736E0,8.082955360E0
4.722931667E0,2.775674164E-1,1.012163997E0,8.030312538E0
4.725342604E0,2.775674164E-1,1.014556766E0,8.015955925E0
4.727753594E0,2.584248483E-1,9.906286001E-1,8.001599312E0
4.730164532E0,2.656033039E-1,9.978070259E-1,7.980063438E0
4.732575469E0,2.847459018E-1,1.000199914E0,7.951349735E0
4.734986407E0,2.895315289E-1,9.954141974E-1,7.934599876E0
4.737397344E0,2.751746178E-1,9.906286001E-1,7.920242786E0
4.739808282E0,2.656033039E-1,9.978070259E-1,7.905886173E0
4.742219219E0,2.679961324E-1,9.834501147E-1,7.903493404E0
4.744630209E0,2.584248483E-1,9.595218897E-1,7.881958008E0
4.747041146E0,2.536391914E-1,9.547362328E-1,7.877171993E0
4.749452084E0,2.608176768E-1,9.667003751E-1,7.879564762E0
4.751863021E0,2.512463629E-1,9.499505758E-1,7.874779224E0
4.754273959E0,2.440679073E-1,9.523434043E-1,7.869993687E0
4.756684896E0,2.464607358E-1,9.284151793E-1,7.872386456E0
4.759095886E0,2.416750938E-1,9.236295223E-1,7.881958008E0
4.761506823E0,2.297109663E-1,9.260223508E-1,7.884350777E0
4.763917761E0,2.129612118E-1,9.236295223E-1,7.905886173E0
4.766328698E0,2.057827413E-1,9.355936646E-1,7.922635555E0
4.768739636E0,2.105683982E-1,9.116654396E-1,7.946564198E0
4.771150573E0,2.081755698E-1,8.901300430E-1,7.965706348E0
4.773561511E0,1.914258152E-1,8.829515576E-1,7.972885132E0
4.775972448E0,1.770688742E-1,8.638089895E-1,7.999206066E0
4.778383438E0,1.579262912E-1,8.733802438E-1,8.001599312E0
4.780794375E0,1.459621787E-1,8.566305041E-1,8.015955925E0
4.783205313E0,1.651047617E-1,8.614161611E-1,8.047062874E0
4.785616250E0,1.411765367E-1,8.542376757E-1,8.073383331E0
4.788027188E0,1.268195957E-1,8.350951076E-1,8.092526436E0
4.790438125E0,1.100698411E-1,8.470591903E-1,8.114061356E0
4.792849063E0,1.004985496E-1,8.183453679E-1,8.130811691E0
4.795260052E0,9.810572863E-2,7.920243144E-1,8.161917686E0
4.797670990E0,8.614161611E-2,7.968099117E-1,8.188239098E0
4.800081927E0,7.178468257E-2,8.111668825E-1,8.212167740E0
4.802492865E0,6.699903309E-2,8.039883971E-1,8.243273735E0
4.804903802E0,6.460621208E-2,7.704889178E-1,8.252845764E0
4.807314740E0,3.589234129E-2,7.609176040E-1,8.279166222E0
4.809725677E0,3.110669367E-2,7.585247755E-1,8.300702095E0
4.812136615E0,1.435693540E-2,7.513462901E-1,8.317451477E0
4.814547604E0,2.392822644E-3,7.202396393E-1,8.338987350E0
4.816958542E0,-4.785645287E-3,7.106683254E-1,8.372486115E0
4.819369479E0,0.000000000E0,7.202396393E-1,8.384450912E0
4.821780417E0,0.000000000E0,7.034898400E-1,8.405985832E0
4.824191354E0,-3.110669367E-2,6.819544435E-1,8.417949677E0
4.826602292E0,-3.828516230E-2,6.891329288E-1,8.417949677E0
4.829013229E0,-4.067798331E-2,6.795616150E-1,8.439485550E0
4.831424219E0,-4.546362907E-2,6.532405615E-1,8.461020470E0
4.833835157E0,-4.546362907E-2,6.460621357E-1,8.484949112E0
4.836246094E0,-5.264209956E-2,6.221339107E-1,8.508877754E0
4.838657032E0,-6.939185411E-2,6.221339107E-1,8.508877754E0
4.841067969E0,-6.939185411E-2,6.149554253E-1,8.513663292E0
4.843478907E0,-7.417750359E-2,6.221339107E-1,8.537590981E0
4.845889844E0,-7.896314561E-2,5.958128572E-1,8.547162056E0
4.848300834E0,-8.135596663E-2,5.934200287E-1,8.563912392E0
4.850711771E0,-9.332008660E-2,5.838487148E-1,8.578269005E0
4.853122709E0,-8.374879509E-2,5.790630579E-1,8.592626572E0
4.855533646E0,-9.092725813E-2,5.623133183E-1,8.614161491E0
4.857944584E0,-9.810572863E-2,5.575276613E-1,8.626125336E0
4.860355521E0,-8.135596663E-2,5.455635786E-1,8.654839516E0
4.862766459E0,-9.571290761E-2,5.335994363E-1,8.666803360E0
4.865177448E0,-9.092725813E-2,5.335994363E-1,8.693124771E0
4.867588386E0,-7.178468257E-2,5.144568682E-1,8.726624489E0
4.869999323E0,-7.657032460E-2,5.192425251E-1,8.740981102E0
4.872410261E0,-5.982056633E-2,4.953143001E-1,8.776873589E0
4.874821198E0,-6.939185411E-2,4.953143001E-1,8.803194046E0
4.877232136E0,-7.417750359E-2,4.737788737E-1,8.831908226E0
4.879643073E0,-6.460621208E-2,4.785645306E-1,8.872586250E0
4.882054063E0,-6.221338734E-2,4.737788737E-1,8.910871506E0
4.884465000E0,-4.307080805E-2,4.546363056E-1,8.937192917E0
4.886875938E0,-2.153540403E-2,4.594219327E-1,8.977870941E0
4.889286875E0,-1.914258115E-2,4.642075896E-1,9.028120041E0
4.891697813E0,-2.871387079E-2,4.570291340E-1,9.073583603E0
4.894108750E0,-2.392822690E-2,4.450650215E-1,9.111868858E0
4.896519688E0,-1.674975827E-2,4.235295951E-1,9.157332420E0
4.898930677E0,-7.178467698E-3,4.235295951E-1,9.186046600E0
4.901341615E0,1.435693540E-2,4.235295951E-1,9.221938133E0
4.903752552E0,3.110669367E-2,4.115654826E-1,9.269794464E0
4.906163490E0,4.307080805E-2,4.211367965E-1,9.310472488E0
4.908574427E0,5.024927482E-2,3.948157430E-1,9.348757744E0
4.910985365E0,6.460621208E-2,3.828516304E-1,9.389435768E0
4.913396302E0,6.699903309E-2,3.876372576E-1,9.430113792E0
4.915807292E0,7.178468257E-2,3.924229145E-1,9.477970123E0
