"Time (s)","Acceleration x (m/s^2)","Acceleration y (m/s^2)","Acceleration z (m/s^2)"
2.867360000E-2,1.148554832E-1,-6.867401123E0,6.920042992E0
3.108219300E-2,9.571290761E-2,-6.853044033E0,6.934400082E0
3.349318300E-2,6.939185411E-2,-6.833901405E0,6.972685337E0
3.590417300E-2,6.460621208E-2,-6.833901405E0,6.979863644E0
3.831511000E-2,8.135596663E-2,-6.829115868E0,6.996613503E0
4.072610000E-2,5.982056633E-2,-6.821937561E0,7.010970116E0
4.313708900E-2,5.024927482E-2,-6.819544315E0,7.027719975E0
4.554802700E-2,2.871387079E-2,-6.809973240E0,7.039684296E0
4.795901600E-2,2.632104978E-2,-6.812366009E0,7.054041386E0
5.037000600E-2,2.392822690E-2,-6.817151546E0,7.073183537E0
5.278094300E-2,2.392822690E-2,-6.838686943E0,7.089933395E0
5.519193300E-2,4.307080805E-2,-6.829115868E0,7.123433113E0
5.760287100E-2,5.503492057E-2,-6.848258495E0,7.147361279E0
6.001386000E-2,6.699903309E-2,-6.865008354E0,7.171289444E0
6.242485000E-2,7.896314561E-2,-6.886543751E0,7.209574699E0
6.483578700E-2,1.100698411E-1,-6.905686378E0,7.216753006E0
6.724677700E-2,1.411765367E-1,-6.924828529E0,7.226324558E0
6.965776600E-2,1.842473447E-1,-6.965506554E0,7.223931789E0
7.206870400E-2,2.440679073E-1,-6.982256413E0,7.223931789E0
7.447969300E-2,2.991028428E-1,-7.010970116E0,7.216753006E0
7.689068300E-2,3.493520916E-1,-7.003791809E0,7.197610378E0
7.930162100E-2,3.684946895E-1,-6.991827965E0,7.178467751E0
8.171261000E-2,4.019941986E-1,-6.991827965E0,7.161718369E0
8.412360000E-2,4.235295951E-1,-6.982256413E0,7.118647575E0
8.653453700E-2,4.211367965E-1,-6.979863644E0,7.087540627E0
8.894552700E-2,4.139583111E-1,-6.955935478E0,7.044469833E0
9.135651600E-2,4.163511395E-1,-6.955935478E0,7.013363361E0
9.376745400E-2,4.019941986E-1,-6.936792850E0,6.984649181E0
9.617844300E-2,4.139583111E-1,-6.932007313E0,6.970292568E0
9.858938100E-2,4.019941986E-1,-6.927221775E0,6.963113785E0
1.010003710E-1,3.900300860E-1,-6.924828529E0,6.960721016E0
1.034113600E-1,3.613162339E-1,-6.924828529E0,6.948757172E0
1.058223500E-1,3.613162339E-1,-6.932007313E0,6.922435760E0
1.082332870E-1,3.302095234E-1,-6.924828529E0,6.876972198E0
1.106442770E-1,2.967100143E-1,-6.900900364E0,6.836294174E0
1.130552140E-1,2.751746178E-1,-6.888936520E0,6.786045074E0
1.154662040E-1,2.536391914E-1,-6.896114826E0,6.742974281E0
1.178771930E-1,2.321037948E-1,-6.908079147E0,6.707081795E0
1.202881310E-1,2.392822653E-1,-6.934400082E0,6.690331936E0
1.226991210E-1,2.392822653E-1,-6.977470875E0,6.668796539E0
1.251101100E-1,2.512463629E-1,-7.003791809E0,6.652047157E0
1.275210480E-1,2.679961324E-1,-7.042077065E0,6.644868374E0
1.299320370E-1,2.703889608E-1,-7.094718933E0,6.625725746E0
1.323430270E-1,2.703889608E-1,-7.123433113E0,6.637690067E0
1.347539640E-1,2.895315289E-1,-7.152146816E0,6.652047157E0
1.371649540E-1,2.895315289E-1,-7.156932354E0,6.666403770E0
1.395759430E-1,2.751746178E-1,-7.149754047E0,6.671189308E0
1.419868810E-1,2.703889608E-1,-7.166503906E0,6.704689026E0
1.443978710E-1,2.679961324E-1,-7.154539585E0,6.738188744E0
1.468088080E-1,2.799602449E-1,-7.118647575E0,6.754938126E0
1.492197980E-1,2.751746178E-1,-7.106683254E0,6.781259537E0
1.516307870E-1,2.584248483E-1,-7.097112179E0,6.809973240E0
1.540417250E-1,2.656033039E-1,-7.066005230E0,6.836294174E0
1.564527140E-1,2.488535494E-1,-7.054041386E0,6.862615108E0
1.588637040E-1,2.368894368E-1,-7.039684296E0,6.888936520E0
1.612746410E-1,2.225325108E-1,-7.039684296E0,6.915257454E0
1.636856310E-1,2.105683982E-1,-7.022934437E0,6.932007313E0
1.660966210E-1,2.033899277E-1,-7.008577347E0,6.943971157E0
1.685075580E-1,1.866401732E-1,-7.010970116E0,6.963113785E0
1.709185480E-1,1.770688742E-1,-7.003791809E0,6.972685337E0
1.733295370E-1,1.842473447E-1,-7.003791809E0,6.975078106E0
1.757404750E-1,1.938186288E-1,-7.013363361E0,6.987041950E0
1.781514640E-1,2.057827413E-1,-7.003791809E0,7.001399040E0
1.805624540E-1,2.225325108E-1,-7.022934437E0,7.010970116E0
1.829733910E-1,2.249253243E-1,-7.032505512E0,7.013363361E0
1.853843810E-1,2.321037948E-1,-7.042077065E0,7.030112743E0
1.877953710E-1,2.440679073E-1,-7.058826923E0,7.056434155E0
1.902063080E-1,2.440679073E-1,-7.039684296E0,7.085147858E0
1.926172980E-1,2.416750938E-1,-7.046862602E0,7.089933395E0
1.950282870E-1,2.440679073E-1,-7.046862602E0,7.106683254E0
1.974392250E-1,2.321037948E-1,-7.022934437E0,7.109076023E0
1.998502140E-1,2.225325108E-1,-7.032505512E0,7.125825882E0
2.022611520E-1,2.105683982E-1,-7.013363361E0,7.111468792E0
2.046721410E-1,2.033899277E-1,-6.984649181E0,7.097112179E0
2.070831310E-1,2.201396823E-1,-6.989434719E0,7.087540627E0
2.094940680E-1,2.105683982E-1,-6.994220734E0,7.068397999E0
2.119050580E-1,2.392822653E-1,-6.994220734E0,7.046862602E0
2.143160480E-1,2.488535494E-1,-6.991827965E0,7.025327206E0
2.167269850E-1,2.536391914E-1,-6.989434719E0,7.013363361E0
2.191379750E-1,2.679961324E-1,-6.989434719E0,6.979863644E0
2.215489640E-1,2.943171859E-1,-6.994220734E0,6.941578388E0
2.239599020E-1,3.349951804E-1,-7.008577347E0,6.898507595E0
2.263708910E-1,3.613162339E-1,-7.008577347E0,6.891329288E0
2.287818810E-1,3.876372576E-1,-7.008577347E0,6.872186661E0
2.311928180E-1,3.972085714E-1,-7.018148899E0,6.860222340E0
2.336038080E-1,4.163511395E-1,-7.003791809E0,6.843472958E0
2.360147980E-1,4.402793646E-1,-7.006184578E0,6.853044033E0
2.384257350E-1,4.402793646E-1,-6.984649181E0,6.853044033E0
2.408367250E-1,4.426721931E-1,-6.982256413E0,6.845865726E0
2.432477140E-1,4.594219327E-1,-6.975078106E0,6.845865726E0
2.456586520E-1,4.426721931E-1,-6.965506554E0,6.848258495E0
2.480696410E-1,4.666004181E-1,-6.987041950E0,6.867401123E0
2.504806310E-1,4.522434771E-1,-6.987041950E0,6.867401123E0
2.528915680E-1,4.283152521E-1,-6.955935478E0,6.867401123E0
2.553025580E-1,4.474578202E-1,-6.955935478E0,6.867401123E0
2.577134960E-1,4.331009090E-1,-6.951149940E0,6.869793892E0
2.601244850E-1,4.307080805E-1,-6.958328247E0,6.872186661E0
2.625354750E-1,4.211367965E-1,-6.955935478E0,6.879364967E0
2.649464120E-1,4.091726840E-1,-6.943971157E0,6.898507595E0
2.673574020E-1,3.948157430E-1,-6.948757172E0,6.891329288E0
2.697683910E-1,3.637090325E-1,-6.915257454E0,6.888936520E0
2.721793290E-1,3.493520916E-1,-6.903293133E0,6.898507595E0
2.745903180E-1,3.613162339E-1,-6.917650223E0,6.912864685E0
2.770013080E-1,3.373879790E-1,-6.929614544E0,6.929614544E0
2.794122460E-1,3.062812984E-1,-6.927221775E0,6.955935478E0
2.818232350E-1,2.823530734E-1,-6.922435760E0,6.979863644E0
2.842342250E-1,2.416750938E-1,-6.927221775E0,7.010970116E0
2.866451620E-1,2.057827413E-1,-6.939185619E0,7.034898758E0
2.890561520E-1,1.794617027E-1,-6.934400082E0,7.056434155E0
2.914671410E-1,1.268195957E-1,-6.943971157E0,7.099504948E0
2.938780790E-1,8.374879509E-2,-6.936792850E0,7.125825882E0
2.962890680E-1,6.460621208E-2,-6.934400082E0,7.154539585E0
2.987000580E-1,3.349951655E-2,-6.970292568E0,7.152146816E0
3.011109960E-1,-7.178467698E-3,-6.955935478E0,7.164111137E0
3.035219850E-1,-3.589234129E-2,-6.963113785E0,7.171289444E0
3.059329750E-1,-5.024927482E-2,-6.967899323E0,7.180860519E0
3.083439120E-1,-6.939185411E-2,-6.975078106E0,7.176074982E0
3.107549020E-1,-9.092725813E-2,-6.979863644E0,7.173682213E0
3.131658390E-1,-1.076770201E-1,-7.006184578E0,7.154539585E0
3.155768290E-1,-1.220339537E-1,-7.025327206E0,7.144968510E0
3.179878180E-1,-1.220339537E-1,-7.042077065E0,7.125825882E0
3.203987560E-1,-1.220339537E-1,-7.061219692E0,7.087540627E0
3.228097460E-1,-1.268195957E-1,-7.085147858E0,7.056434155E0
3.252207350E-1,-1.435693651E-1,-7.106683254E0,7.025327206E0
3.276316730E-1,-1.244267747E-1,-7.123433113E0,6.999006271E0
3.300426620E-1,-7.896314561E-2,-7.137789726E0,6.963113785E0
3.324536520E-1,-5.024927482E-2,-7.161718369E0,6.939185619E0
3.348645890E-1,-3.110669367E-2,-7.168896675E0,6.886543751E0
3.372755790E-1,2.392822644E-3,-7.197610378E0,6.838686943E0
3.396865680E-1,4.067798331E-2,-7.204789162E0,6.805187702E0
3.420975060E-1,6.221338734E-2,-7.202396393E0,6.766902447E0
3.445084960E-1,1.004985496E-1,-7.197610378E0,6.731009960E0
3.469194850E-1,1.244267747E-1,-7.207181931E0,6.692724705E0
3.493304230E-1,1.292124242E-1,-7.214360237E0,6.656832695E0
3.517414120E-1,1.363908947E-1,-7.209574699E0,6.616154671E0
3.541524020E-1,1.579262912E-1,-7.202396393E0,6.582654953E0
3.565633390E-1,1.603191197E-1,-7.188039303E0,6.551548481E0
3.589743290E-1,1.674975902E-1,-7.190432072E0,6.530013084E0
3.613852660E-1,1.627119333E-1,-7.176074982E0,6.520441532E0
3.637962560E-1,1.674975902E-1,-7.168896675E0,6.501298904E0
3.662072460E-1,1.890329868E-1,-7.149754047E0,6.501298904E0
3.686181830E-1,1.866401732E-1,-7.140182972E0,6.510870457E0
3.710291730E-1,1.818545163E-1,-7.140182972E0,6.513263226E0
3.734401620E-1,1.674975902E-1,-7.123433113E0,6.513263226E0
3.758511000E-1,1.818545163E-1,-7.106683254E0,6.520441532E0
3.782620890E-1,1.938186288E-1,-7.080362320E0,6.534798622E0
3.806730790E-1,1.914258152E-1,-7.070790768E0,6.558726788E0
3.830840160E-1,1.698904037E-1,-7.082755089E0,6.597012043E0
3.854950060E-1,1.698904037E-1,-7.085147858E0,6.637690067E0
3.879059960E-1,1.746760458E-1,-7.070790768E0,6.671189308E0
3.903169330E-1,1.866401732E-1,-7.054041386E0,6.709474564E0
3.927279230E-1,1.938186288E-1,-7.063612461E0,6.738188744E0
3.951389120E-1,2.177468538E-1,-7.054041386E0,6.774080753E0
3.975498500E-1,2.344966233E-1,-7.058826923E0,6.812366009E0
3.999608390E-1,2.416750938E-1,-7.034898758E0,6.857829571E0
4.023718290E-1,2.560320199E-1,-7.010970116E0,6.898507595E0
4.047827660E-1,2.632105052E-1,-6.989434719E0,6.927221775E0
4.071937560E-1,2.512463629E-1,-6.979863644E0,6.958328247E0
4.096047460E-1,2.368894368E-1,-6.953542709E0,7.008577347E0
4.120156830E-1,2.153540403E-1,-6.936792850E0,7.042077065E0
4.144266730E-1,1.842473447E-1,-6.941578388E0,7.085147858E0
4.168376620E-1,1.674975902E-1,-6.939185619E0,7.147361279E0
4.192486000E-1,1.483550072E-1,-6.920042992E0,7.183253765E0
4.216595890E-1,1.268195957E-1,-6.924828529E0,7.211967468E0
4.240705270E-1,1.316052526E-1,-6.939185619E0,7.252645493E0
4.264815160E-1,1.124626622E-1,-6.972685337E0,7.276573658E0
4.288925060E-1,1.076770201E-1,-6.987041950E0,7.290930748E0
4.313034430E-1,1.148554832E-1,-7.001399040E0,7.295716286E0
4.337144330E-1,1.148554832E-1,-7.015756130E0,7.293323517E0
4.361254230E-1,1.244267747E-1,-7.044469833E0,7.286144733E0
4.385363600E-1,1.387837082E-1,-7.068397999E0,7.276573658E0
4.409473500E-1,1.268195957E-1,-7.089933395E0,7.267002583E0
4.433583390E-1,1.292124242E-1,-7.092326164E0,7.250252724E0
4.457692770E-1,1.004985496E-1,-7.116254330E0,7.219145775E0
4.481802660E-1,8.853443712E-2,-7.140182972E0,7.180860519E0
4.505912560E-1,8.853443712E-2,-7.140182972E0,7.140182972E0
4.530021930E-1,6.939185411E-2,-7.159325123E0,7.085147858E0
4.554131830E-1,5.503492057E-2,-7.173682213E0,7.034898758E0
4.578241210E-1,5.024927482E-2,-7.176074982E0,6.987041950E0
4.602351100E-1,3.589234129E-2,-7.161718369E0,6.941578388E0
4.626461000E-1,2.392822690E-2,-7.133004189E0,6.876972198E0
4.650570890E-1,-2.392822644E-3,-7.111468792E0,6.824330330E0
4.674680270E-1,-9.571290575E-3,-7.106683254E0,6.778866768E0
4.698790160E-1,-2.153540403E-2,-7.061219692E0,6.747759819E0
4.722899540E-1,-5.264209956E-2,-7.025327206E0,6.687939167E0
4.747009430E-1,-3.349951655E-2,-7.022934437E0,6.642475605E0
4.771119330E-1,-1.674975827E-2,-7.006184578E0,6.606583118E0
4.795228710E-1,-7.178467698E-3,-6.982256413E0,6.577869415E0
4.819338600E-1,-9.571290575E-3,-6.975078106E0,6.541976929E0
4.843448500E-1,-2.153540403E-2,-6.970292568E0,6.520441532E0
4.867558390E-1,-7.178467698E-3,-6.967899323E0,6.515655994E0
4.891667770E-1,1.435693540E-2,-6.979863644E0,6.513263226E0
4.915777660E-1,1.196411345E-2,-6.970292568E0,6.513263226E0
4.939887040E-1,9.571290575E-3,-6.979863644E0,6.520441532E0
4.963996930E-1,1.196411345E-2,-6.996613503E0,6.525227547E0
4.988106830E-1,3.110669367E-2,-7.018148899E0,6.534798622E0
5.012216210E-1,5.264209956E-2,-7.020541668E0,6.541976929E0
5.036326100E-1,4.067798331E-2,-7.020541668E0,6.573083878E0
5.060436000E-1,6.460621208E-2,-7.034898758E0,6.618547440E0
5.084545370E-1,4.546362907E-2,-7.025327206E0,6.647261143E0
5.108655270E-1,5.024927482E-2,-7.042077065E0,6.687939167E0
5.132765160E-1,5.742774159E-2,-7.046862602E0,6.731009960E0
5.156874540E-1,6.221338734E-2,-7.058826923E0,6.769295216E0
5.180984430E-1,6.221338734E-2,-7.063612461E0,6.807580471E0
5.205094330E-1,7.896314561E-2,-7.073183537E0,6.841079712E0
5.229203710E-1,8.135596663E-2,-7.089933395E0,6.888936520E0
5.253313600E-1,1.244267747E-1,-7.113861561E0,6.934400082E0
5.277423500E-1,1.268195957E-1,-7.137789726E0,6.984649181E0
5.301532870E-1,1.268195957E-1,-7.144968510E0,7.022934437E0
5.325642770E-1,1.459621787E-1,-7.154539585E0,7.075576782E0
5.349752660E-1,1.411765367E-1,-7.173682213E0,7.113861561E0
5.373862040E-1,1.579262912E-1,-7.171289444E0,7.135396957E0
5.397971930E-1,1.579262912E-1,-7.168896675E0,7.159325123E0
5.422081830E-1,1.363908947E-1,-7.180860519E0,7.173682213E0
5.446191210E-1,1.268195957E-1,-7.180860519E0,7.171289444E0
5.470301100E-1,1.411765367E-1,-7.168896675E0,7.185646534E0
5.494410480E-1,1.483550072E-1,-7.144968510E0,7.190432072E0
5.518520370E-1,1.411765367E-1,-7.147361279E0,7.176074982E0
5.542630270E-1,1.435693651E-1,-7.147361279E0,7.168896675E0
5.566739640E-1,1.579262912E-1,-7.144968510E0,7.149754047E0
5.590849540E-1,1.579262912E-1,-7.147361279E0,7.133004189E0
5.614959430E-1,1.531406492E-1,-7.142575741E0,7.116254330E0
5.639068810E-1,1.555334777E-1,-7.135396957E0,7.087540627E0
5.663178710E-1,1.531406492E-1,-7.152146816E0,7.061219692E0
5.687288600E-1,1.411765367E-1,-7.137789726E0,7.018148899E0
5.711397980E-1,1.292124242E-1,-7.116254330E0,6.999006271E0
5.735507870E-1,1.387837082E-1,-7.116254330E0,6.979863644E0
5.759617770E-1,1.507478207E-1,-7.101897717E0,6.929614544E0
5.783727140E-1,1.483550072E-1,-7.089933395E0,6.891329288E0
5.807837040E-1,1.459621787E-1,-7.089933395E0,6.845865726E0
5.831946930E-1,1.387837082E-1,-7.092326164E0,6.812366009E0
5.856056310E-1,1.268195957E-1,-7.066005230E0,6.766902447E0
5.880166210E-1,1.411765367E-1,-7.051648140E0,6.738188744E0
5.904276100E-1,1.483550072E-1,-7.066005230E0,6.680760860E0
5.928385480E-1,1.579262912E-1,-7.051648140E0,6.652047157E0
5.952495370E-1,1.459621787E-1,-7.037291527E0,6.606583118E0
5.976605270E-1,1.387837082E-1,-7.037291527E0,6.577869415E0
6.000714640E-1,1.459621787E-1,-7.042077065E0,6.565905571E0
6.024824540E-1,1.651047617E-1,-7.039684296E0,6.546762943E0
6.048933910E-1,1.579262912E-1,-7.037291527E0,6.546762943E0
6.073043810E-1,1.722832322E-1,-7.054041386E0,6.549155712E0
6.097153710E-1,1.770688742E-1,-7.056434155E0,6.561119556E0
6.121263600E-1,1.770688742E-1,-7.070790768E0,6.570691109E0
6.145372980E-1,1.986042857E-1,-7.087540627E0,6.577869415E0
6.169482870E-1,1.938186288E-1,-7.104290485E0,6.613761902E0
6.193592250E-1,1.986042857E-1,-7.116254330E0,6.652047157E0
6.217702140E-1,2.009970993E-1,-7.128218651E0,6.683153629E0
6.241812040E-1,1.986042857E-1,-7.118647575E0,6.697510719E0
6.265921410E-1,1.842473447E-1,-7.121040344E0,6.733402729E0
6.290031310E-1,1.770688742E-1,-7.118647575E0,6.757331371E0
6.314141210E-1,1.770688742E-1,-7.111468792E0,6.790830612E0
6.338250580E-1,1.722832322E-1,-7.106683254E0,6.814758778E0
6.362360480E-1,1.698904037E-1,-7.106683254E0,6.843472958E0
6.386470370E-1,1.794617027E-1,-7.113861561E0,6.857829571E0
6.410579750E-1,1.938186288E-1,-7.128218651E0,6.898507595E0
6.434689640E-1,1.842473447E-1,-7.116254330E0,6.905686378E0
6.458799540E-1,1.722832322E-1,-7.109076023E0,6.958328247E0
6.482908910E-1,1.794617027E-1,-7.089933395E0,6.987041950E0
6.507018810E-1,1.842473447E-1,-7.077969551E0,6.996613503E0
6.531128710E-1,1.674975902E-1,-7.077969551E0,7.022934437E0
6.555238080E-1,1.603191197E-1,-7.046862602E0,7.034898758E0
6.579347980E-1,1.483550072E-1,-7.025327206E0,7.070790768E0
6.603457870E-1,1.435693651E-1,-7.010970116E0,7.089933395E0
6.627567250E-1,1.387837082E-1,-6.989434719E0,7.097112179E0
6.651677140E-1,1.435693651E-1,-6.979863644E0,7.104290485E0
6.675787040E-1,1.387837082E-1,-6.975078106E0,7.092326164E0
6.699896410E-1,1.483550072E-1,-6.970292568E0,7.077969551E0
6.724006310E-1,1.339980662E-1,-6.979863644E0,7.075576782E0
6.748115680E-1,1.292124242E-1,-6.991827965E0,7.061219692E0
6.772225580E-1,1.316052526E-1,-7.003791809E0,7.039684296E0
6.796335480E-1,1.148554832E-1,-7.030112743E0,7.034898758E0
6.820444850E-1,1.076770201E-1,-7.046862602E0,7.010970116E0
6.844554750E-1,1.292124242E-1,-7.073183537E0,6.994220734E0
6.868664640E-1,1.220339537E-1,-7.109076023E0,6.979863644E0
6.892774020E-1,1.244267747E-1,-7.133004189E0,6.958328247E0
6.916883910E-1,1.339980662E-1,-7.144968510E0,6.917650223E0
6.940993810E-1,1.411765367E-1,-7.161718369E0,6.891329288E0
6.965103180E-1,1.555334777E-1,-7.154539585E0,6.869793892E0
6.989213080E-1,1.603191197E-1,-7.152146816E0,6.821937561E0
7.013322980E-1,1.794617027E-1,-7.147361279E0,6.800402164E0
7.037432350E-1,1.914258152E-1,-7.135396957E0,6.764509678E0
7.061542250E-1,2.081755698E-1,-7.140182972E0,6.742974281E0
7.085652140E-1,2.273181528E-1,-7.140182972E0,6.707081795E0
7.109761520E-1,2.560320199E-1,-7.123433113E0,6.666403770E0
7.133871410E-1,2.512463629E-1,-7.113861561E0,6.635297298E0
7.157981310E-1,2.751746178E-1,-7.109076023E0,6.589833736E0
7.182090680E-1,2.847459018E-1,-7.104290485E0,6.563512325E0
7.206200580E-1,2.823530734E-1,-7.125825882E0,6.537191391E0
7.230310480E-1,2.871387303E-1,-7.137789726E0,6.522834301E0
7.254419850E-1,2.679961324E-1,-7.142575741E0,6.506084919E0
7.278529750E-1,2.679961324E-1,-7.164111137E0,6.486942291E0
7.302639640E-1,2.416750938E-1,-7.190432072E0,6.491727829E0
7.326749020E-1,2.392822653E-1,-7.190432072E0,6.474977970E0
7.350858910E-1,2.344966233E-1,-7.197610378E0,6.474977970E0
7.374968810E-1,2.201396823E-1,-7.204789162E0,6.470192432E0
7.399078180E-1,1.986042857E-1,-7.195217609E0,6.458228111E0
7.423188080E-1,1.914258152E-1,-7.195217609E0,6.458228111E0
7.447297980E-1,1.794617027E-1,-7.171289444E0,6.472585201E0
7.471407350E-1,1.651047617E-1,-7.166503906E0,6.503692150E0
7.495517250E-1,1.483550072E-1,-7.161718369E0,6.520441532E0
7.519626620E-1,1.292124242E-1,-7.159325123E0,6.551548481E0
7.543736520E-1,1.292124242E-1,-7.154539585E0,6.577869415E0
7.567846410E-1,1.052841991E-1,-7.159325123E0,6.601797581E0
7.591955790E-1,1.028913707E-1,-7.159325123E0,6.644868374E0
7.616065680E-1,9.332008660E-2,-7.176074982E0,6.680760860E0
7.640175580E-1,9.092725813E-2,-7.166503906E0,6.699903488E0
7.664284960E-1,7.657032460E-2,-7.173682213E0,6.723831654E0
7.688394850E-1,7.178468257E-2,-7.161718369E0,6.750152588E0
7.712504750E-1,6.939185411E-2,-7.144968510E0,6.783652306E0
7.736614120E-1,8.135596663E-2,-7.144968510E0,6.793223381E0
7.760724020E-1,7.417750359E-2,-7.125825882E0,6.793223381E0
7.784833910E-1,7.896314561E-2,-7.116254330E0,6.819544315E0
7.808943290E-1,9.332008660E-2,-7.104290485E0,6.841079712E0
7.833053180E-1,1.100698411E-1,-7.080362320E0,6.865008354E0
7.857163080E-1,1.172483116E-1,-7.082755089E0,6.893722057E0
7.881272460E-1,1.244267747E-1,-7.082755089E0,6.927221775E0
7.905382350E-1,1.531406492E-1,-7.097112179E0,6.963113785E0
7.929492250E-1,1.746760458E-1,-7.087540627E0,6.987041950E0
7.953601620E-1,1.746760458E-1,-7.061219692E0,7.018148899E0
7.977711520E-1,1.651047617E-1,-7.058826923E0,7.030112743E0
8.001821410E-1,1.531406492E-1,-7.061219692E0,7.049255371E0
8.025930790E-1,1.746760458E-1,-7.046862602E0,7.051648140E0
8.050040680E-1,1.794617027E-1,-7.061219692E0,7.058826923E0
8.074150060E-1,1.674975902E-1,-7.049255371E0,7.066005230E0
8.098259960E-1,1.746760458E-1,-7.034898758E0,7.068397999E0
8.122369850E-1,1.866401732E-1,-7.046862602E0,7.068397999E0
8.146479750E-1,1.914258152E-1,-7.049255371E0,7.049255371E0
8.170589120E-1,1.938186288E-1,-7.068397999E0,7.042077065E0
8.194699020E-1,2.009970993E-1,-7.094718933E0,7.027719975E0
8.218808390E-1,2.009970993E-1,-7.101897717E0,7.025327206E0
8.242918290E-1,2.081755698E-1,-7.121040344E0,7.013363361E0
8.267028180E-1,2.201396823E-1,-7.142575741E0,6.987041950E0
8.291138080E-1,2.297109663E-1,-7.159325123E0,6.975078106E0
8.315247460E-1,2.201396823E-1,-7.147361279E0,6.941578388E0
8.339357350E-1,2.081755698E-1,-7.140182972E0,6.910471916E0
8.363467250E-1,1.962114573E-1,-7.156932354E0,6.874579430E0
8.387576620E-1,2.009970993E-1,-7.144968510E0,6.845865726E0
8.411686520E-1,1.986042857E-1,-7.154539585E0,6.821937561E0
8.435795890E-1,1.962114573E-1,-7.149754047E0,6.798008919E0
8.459905790E-1,1.962114573E-1,-7.130611420E0,6.783652306E0
8.484015680E-1,1.866401732E-1,-7.130611420E0,6.769295216E0
8.508125060E-1,1.794617027E-1,-7.125825882E0,6.754938126E0
8.532234960E-1,1.579262912E-1,-7.118647575E0,6.745367050E0
8.556344850E-1,1.483550072E-1,-7.128218651E0,6.731009960E0
8.580454230E-1,1.268195957E-1,-7.142575741E0,6.723831654E0
8.604564120E-1,1.124626622E-1,-7.142575741E0,6.731009960E0
8.628674020E-1,8.853443712E-2,-7.188039303E0,6.726224422E0
8.652783390E-1,6.699903309E-2,-7.178467751E0,6.711867332E0
8.676893290E-1,5.982056633E-2,-7.180860519E0,6.731009960E0
8.701003180E-1,2.153540403E-2,-7.188039303E0,6.726224422E0
8.725112560E-1,2.392822644E-3,-7.188039303E0,6.719046116E0
8.749222460E-1,-4.785645287E-3,-7.185646534E0,6.723831654E0
8.773332350E-1,-3.349951655E-2,-7.185646534E0,6.721438885E0
8.797441730E-1,-5.264209956E-2,-7.171289444E0,6.728617191E0
8.821551620E-1,-5.742774159E-2,-7.154539585E0,6.733402729E0
8.845661520E-1,-6.699903309E-2,-7.118647575E0,6.747759819E0
8.869770890E-1,-5.982056633E-2,-7.111468792E0,6.778866768E0
8.893880790E-1,-7.896314561E-2,-7.104290485E0,6.786045074E0
8.917990680E-1,-6.939185411E-2,-7.111468792E0,6.798008919E0
8.942100060E-1,-6.221338734E-2,-7.125825882E0,6.805187702E0
8.966209960E-1,-5.264209956E-2,-7.128218651E0,6.795616150E0
8.990319850E-1,-2.632104978E-2,-7.135396957E0,6.790830612E0
9.014429230E-1,-1.196411345E-2,-7.130611420E0,6.805187702E0
9.038539120E-1,-2.392822644E-3,-7.137789726E0,6.833901405E0
9.062648500E-1,0.000000000E0,-7.142575741E0,6.843472958E0
9.086758390E-1,1.435693540E-2,-7.144968510E0,6.876972198E0
9.110868290E-1,1.674975827E-2,-7.147361279E0,6.891329288E0
9.134978180E-1,1.914258115E-2,-7.173682213E0,6.908079147E0
9.159087560E-1,3.349951655E-2,-7.161718369E0,6.924828529E0
9.183197460E-1,3.349951655E-2,-7.161718369E0,6.929614544E0
9.207306830E-1,3.828516230E-2,-7.180860519E0,6.936792850E0
9.231416730E-1,4.785645381E-2,-7.178467751E0,6.924828529E0
9.255526620E-1,5.503492057E-2,-7.178467751E0,6.917650223E0
9.279636000E-1,8.614161611E-2,-7.192824841E0,6.915257454E0
9.303745890E-1,1.316052526E-1,-7.183253765E0,6.896114826E0
9.327855790E-1,1.387837082E-1,-7.185646534E0,6.876972198E0
9.351965160E-1,1.579262912E-1,-7.180860519E0,6.879364967E0
9.376075060E-1,1.579262912E-1,-7.178467751E0,6.862615108E0
9.400184960E-1,1.866401732E-1,-7.195217609E0,6.857829571E0
9.424294330E-1,2.033899277E-1,-7.202396393E0,6.843472958E0
9.448404230E-1,2.225325108E-1,-7.195217609E0,6.831508636E0
9.472514120E-1,2.632105052E-1,-7.188039303E0,6.824330330E0
9.496623500E-1,2.512463629E-1,-7.192824841E0,6.802794933E0
9.520733390E-1,2.536391914E-1,-7.204789162E0,6.769295216E0
9.544843290E-1,2.656033039E-1,-7.200003147E0,6.738188744E0
9.568952660E-1,2.703889608E-1,-7.211967468E0,6.711867332E0
9.593062560E-1,2.799602449E-1,-7.231110096E0,6.707081795E0
9.617172460E-1,2.823530734E-1,-7.216753006E0,6.673582554E0
9.641281830E-1,3.062812984E-1,-7.209574699E0,6.647261143E0
9.665391730E-1,3.110669553E-1,-7.185646534E0,6.601797581E0
9.689501620E-1,3.182454109E-1,-7.178467751E0,6.575476646E0
9.713611000E-1,3.158525825E-1,-7.171289444E0,6.544369698E0
9.737720890E-1,3.349951804E-1,-7.176074982E0,6.513263226E0
9.761830790E-1,3.469592929E-1,-7.197610378E0,6.489335060E0
9.785940160E-1,3.732803464E-1,-7.188039303E0,6.477370739E0
9.810050060E-1,3.756731451E-1,-7.180860519E0,6.463014126E0
9.834159960E-1,3.804588020E-1,-7.173682213E0,6.453442574E0
9.858269330E-1,3.972085714E-1,-7.188039303E0,6.448657036E0
9.882379230E-1,3.972085714E-1,-7.185646534E0,6.455835342E0
9.906488600E-1,3.924229145E-1,-7.183253765E0,6.477370739E0
9.930598500E-1,3.852444589E-1,-7.197610378E0,6.479763508E0
9.954708390E-1,3.732803464E-1,-7.185646534E0,6.496513367E0
9.978818290E-1,3.732803464E-1,-7.164111137E0,6.527620316E0
1.000292766E0,3.397808075E-1,-7.164111137E0,6.553941250E0
1.002703756E0,3.206382394E-1,-7.178467751E0,6.563512325E0
1.005114693E0,2.991028428E-1,-7.192824841E0,6.577869415E0
1.007525683E0,2.775674164E-1,-7.209574699E0,6.606583118E0
1.009936673E0,2.632105052E-1,-7.221538544E0,6.625725746E0
1.012347610E0,2.703889608E-1,-7.226324558E0,6.649653912E0
1.014758600E0,2.679961324E-1,-7.216753006E0,6.654439926E0
1.017169589E0,2.656033039E-1,-7.221538544E0,6.664011002E0
1.019580527E0,2.560320199E-1,-7.240681171E0,6.685546398E0
1.021991516E0,2.344966233E-1,-7.235895634E0,6.695117950E0
1.024402506E0,2.392822653E-1,-7.231110096E0,6.721438885E0
1.026813443E0,2.560320199E-1,-7.233502865E0,6.745367050E0
1.029224433E0,2.560320199E-1,-7.238288403E0,6.762116909E0
1.031635423E0,2.823530734E-1,-7.259823799E0,6.788437843E0
1.034046360E0,2.703889608E-1,-7.255038261E0,6.798008919E0
1.036457350E0,2.560320199E-1,-7.259823799E0,6.814758778E0
1.038868339E0,2.368894368E-1,-7.247859955E0,6.836294174E0
1.041279277E0,2.225325108E-1,-7.247859955E0,6.853044033E0
1.043690266E0,2.105683982E-1,-7.231110096E0,6.862615108E0
1.046101256E0,2.057827413E-1,-7.211967468E0,6.865008354E0
1.048512193E0,2.201396823E-1,-7.197610378E0,6.857829571E0
1.050923183E0,2.057827413E-1,-7.197610378E0,6.841079712E0
1.053334173E0,1.938186288E-1,-7.180860519E0,6.833901405E0
1.055745110E0,1.818545163E-1,-7.180860519E0,6.807580471E0
1.058156100E0,1.794617027E-1,-7.180860519E0,6.793223381E0
1.060567089E0,2.081755698E-1,-7.202396393E0,6.781259537E0
1.062978027E0,2.009970993E-1,-7.219145775E0,6.774080753E0
1.065389016E0,1.842473447E-1,-7.240681171E0,6.747759819E0
1.067800006E0,1.914258152E-1,-7.259823799E0,6.735795975E0
1.070210943E0,2.057827413E-1,-7.259823799E0,6.711867332E0
1.072621933E0,1.770688742E-1,-7.288537979E0,6.699903488E0
1.075032923E0,1.627119333E-1,-7.324429989E0,6.680760860E0
1.077443860E0,1.627119333E-1,-7.345965385E0,6.656832695E0
1.079854850E0,1.722832322E-1,-7.357929707E0,6.625725746E0
1.082265839E0,1.627119333E-1,-7.362715244E0,6.594619274E0
1.084676777E0,1.818545163E-1,-7.357929707E0,6.580262184E0
1.087087766E0,1.770688742E-1,-7.338787079E0,6.568298340E0
1.089498756E0,1.794617027E-1,-7.341179848E0,6.541976929E0
1.091909693E0,2.177468538E-1,-7.331608772E0,6.532405853E0
1.094320683E0,2.225325108E-1,-7.331608772E0,6.525227547E0
1.096731673E0,2.416750938E-1,-7.302894592E0,6.522834301E0
1.099142610E0,2.632105052E-1,-7.310073376E0,6.513263226E0
1.101553600E0,2.751746178E-1,-7.278966427E0,6.506084919E0
1.103964537E0,2.727817893E-1,-7.262216568E0,6.522834301E0
1.106375527E0,2.727817893E-1,-7.238288403E0,6.515655994E0
1.108786516E0,2.703889608E-1,-7.235895634E0,6.498906136E0
1.111197506E0,2.751746178E-1,-7.228717327E0,6.503692150E0
1.113608443E0,2.608176768E-1,-7.223931789E0,6.530013084E0
1.116019433E0,2.512463629E-1,-7.219145775E0,6.537191391E0
1.118430371E0,2.105683982E-1,-7.211967468E0,6.549155712E0
1.120841360E0,1.794617027E-1,-7.190432072E0,6.585047722E0
1.123252350E0,1.627119333E-1,-7.180860519E0,6.608976364E0
1.125663287E0,1.651047617E-1,-7.171289444E0,6.630511761E0
1.128074277E0,1.579262912E-1,-7.178467751E0,6.652047157E0
1.130485266E0,1.603191197E-1,-7.164111137E0,6.687939167E0
1.132896204E0,1.531406492E-1,-7.152146816E0,6.719046116E0
1.135307193E0,1.579262912E-1,-7.144968510E0,6.745367050E0
1.137718183E0,1.794617027E-1,-7.130611420E0,6.781259537E0
1.140129121E0,1.842473447E-1,-7.154539585E0,6.798008919E0
1.142540110E0,1.866401732E-1,-7.154539585E0,6.819544315E0
1.144951100E0,1.962114573E-1,-7.168896675E0,6.841079712E0
1.147362037E0,2.129612118E-1,-7.173682213E0,6.869793892E0
1.149773027E0,1.962114573E-1,-7.178467751E0,6.893722057E0
1.152184016E0,1.938186288E-1,-7.183253765E0,6.912864685E0
1.154594954E0,2.177468538E-1,-7.202396393E0,6.924828529E0
1.157005943E0,2.273181528E-1,-7.219145775E0,6.941578388E0
1.159416933E0,2.201396823E-1,-7.221538544E0,6.946363926E0
1.161827871E0,2.009970993E-1,-7.209574699E0,6.977470875E0
1.164238860E0,1.674975902E-1,-7.195217609E0,6.972685337E0
1.166649850E0,1.339980662E-1,-7.173682213E0,6.967899323E0
1.169060787E0,1.316052526E-1,-7.161718369E0,6.955935478E0
1.171471777E0,1.483550072E-1,-7.154539585E0,6.960721016E0
1.173882766E0,1.698904037E-1,-7.171289444E0,6.963113785E0
1.176293704E0,1.914258152E-1,-7.173682213E0,6.963113785E0
1.178704693E0,2.129612118E-1,-7.192824841E0,6.929614544E0
1.181115683E0,2.392822653E-1,-7.223931789E0,6.891329288E0
1.183526621E0,2.488535494E-1,-7.233502865E0,6.865008354E0
1.185937610E0,2.727817893E-1,-7.250252724E0,6.831508636E0
1.188348600E0,2.799602449E-1,-7.278966427E0,6.807580471E0
1.190759537E0,3.086741269E-1,-7.312466145E0,6.762116909E0
1.193170527E0,3.038884699E-1,-7.324429989E0,6.733402729E0
1.195581516E0,2.847459018E-1,-7.300501823E0,6.699903488E0
1.197992454E0,2.464607358E-1,-7.274180889E0,6.652047157E0
1.200403443E0,2.249253243E-1,-7.243073940E0,6.608976364E0
1.202814433E0,2.153540403E-1,-7.223931789E0,6.575476646E0
1.205225371E0,1.914258152E-1,-7.190432072E0,6.561119556E0
1.207636360E0,1.890329868E-1,-7.166503906E0,6.553941250E0
1.210047350E0,1.962114573E-1,-7.166503906E0,6.553941250E0
1.212458287E0,2.057827413E-1,-7.161718369E0,6.544369698E0
1.214869277E0,2.273181528E-1,-7.168896675E0,6.541976929E0
1.217280214E0,2.344966233E-1,-7.183253765E0,6.544369698E0
1.219691204E0,2.488535494E-1,-7.176074982E0,6.558726788E0
1.222102193E0,2.297109663E-1,-7.195217609E0,6.568298340E0
1.224513131E0,2.392822653E-1,-7.195217609E0,6.561119556E0
1.226924121E0,2.249253243E-1,-7.202396393E0,6.561119556E0
1.229335110E0,2.249253243E-1,-7.216753006E0,6.556334019E0
1.231746048E0,2.177468538E-1,-7.228717327E0,6.549155712E0
1.234157037E0,2.153540403E-1,-7.243073940E0,6.544369698E0
1.236568027E0,2.033899277E-1,-7.262216568E0,6.539584160E0
1.238978964E0,1.818545163E-1,-7.278966427E0,6.534798622E0
1.241389954E0,1.651047617E-1,-7.298109055E0,6.556334019E0
1.243800943E0,1.627119333E-1,-7.310073376E0,6.561119556E0
1.246211881E0,1.651047617E-1,-7.302894592E0,6.568298340E0
1.248622871E0,1.770688742E-1,-7.334001541E0,6.587440968E0
1.251033860E0,1.746760458E-1,-7.345965385E0,6.613761902E0
1.253444798E0,1.866401732E-1,-7.362715244E0,6.632904530E0
1.255855787E0,1.914258152E-1,-7.374679565E0,6.656832695E0
1.258266777E0,1.962114573E-1,-7.381857872E0,6.690331936E0
1.260677714E0,1.866401732E-1,-7.403393269E0,6.702296257E0
1.263088704E0,1.746760458E-1,-7.420143127E0,6.735795975E0
1.265499693E0,1.555334777E-1,-7.436892986E0,6.752545357E0
1.267910631E0,1.411765367E-1,-7.444071293E0,6.752545357E0
1.270321621E0,1.196411327E-1,-7.434499741E0,6.757331371E0
1.272732610E0,9.092725813E-2,-7.444071293E0,6.750152588E0
1.275143548E0,6.460621208E-2,-7.420143127E0,6.754938126E0
1.277554537E0,4.307080805E-2,-7.401000500E0,6.757331371E0
1.279965527E0,1.674975827E-2,-7.377072334E0,6.740581512E0
1.282376464E0,1.435693540E-2,-7.381857872E0,6.728617191E0
1.284787454E0,1.914258115E-2,-7.369893551E0,6.702296257E0
1.287198443E0,-4.785645287E-3,-7.341179848E0,6.683153629E0
1.289609381E0,-1.674975827E-2,-7.331608772E0,6.659225464E0
1.292020371E0,-7.178467698E-3,-7.326822758E0,6.642475605E0
1.294431360E0,-4.785645287E-3,-7.298109055E0,6.635297298E0
1.296842298E0,-1.196411345E-2,-7.295716286E0,6.637690067E0
1.299253287E0,-4.785645287E-3,-7.281359196E0,6.628118515E0
1.301664277E0,-2.392822644E-3,-7.271788120E0,6.608976364E0
1.304075214E0,7.178467698E-3,-7.271788120E0,6.587440968E0
1.306486204E0,4.785645287E-3,-7.257431030E0,6.558726788E0
1.308897193E0,4.785645287E-3,-7.252645493E0,6.537191391E0
1.311308131E0,-2.392822644E-3,-7.240681171E0,6.532405853E0
1.313719121E0,9.571290575E-3,-7.233502865E0,6.498906136E0
1.316130110E0,9.571290575E-3,-7.226324558E0,6.477370739E0
1.318541048E0,1.435693540E-2,-7.235895634E0,6.453442574E0
1.320952037E0,1.914258115E-2,-7.216753006E0,6.441478729E0
1.323363027E0,4.785645381E-2,-7.202396393E0,6.419943333E0
1.325773964E0,5.503492057E-2,-7.168896675E0,6.403193474E0
1.328184954E0,6.699903309E-2,-7.166503906E0,6.412764549E0
1.330595943E0,7.178468257E-2,-7.142575741E0,6.434299946E0
1.333006881E0,1.004985496E-1,-7.135396957E0,6.441478729E0
1.335417871E0,1.220339537E-1,-7.133004189E0,6.448657036E0
1.337828808E0,1.651047617E-1,-7.125825882E0,6.474977970E0
1.340239798E0,2.273181528E-1,-7.092326164E0,6.506084919E0
1.342650787E0,2.727817893E-1,-7.042077065E0,6.501298904E0
1.345061725E0,3.302095234E-1,-6.996613503E0,6.491727829E0
1.347472714E0,4.043870270E-1,-6.943971157E0,6.486942291E0
1.349883704E0,4.929214716E-1,-6.888936520E0,6.472585201E0
1.352294641E0,6.149554253E-1,-6.802794933E0,6.451049805E0
1.354705631E0,6.891329288E-1,-6.728617191E0,6.439085960E0
1.357116621E0,7.968099117E-1,-6.685546398E0,6.465406895E0
1.359527558E0,8.327022791E-1,-6.692724705E0,6.525227547E0
1.361938548E0,8.303094506E-1,-6.714260101E0,6.577869415E0
1.364349537E0,8.327022791E-1,-6.692724705E0,6.616154671E0
1.366760527E0,8.015955687E-1,-6.664011002E0,6.666403770E0
1.369171464E0,7.824530005E-1,-6.637690067E0,6.735795975E0
1.371582454E0,7.824530005E-1,-6.608976364E0,6.800402164E0
1.373993391E0,7.513462901E-1,-6.570691109E0,6.843472958E0
1.376404381E0,7.058826685E-1,-6.556334019E0,6.872186661E0
1.378815371E0,6.173482537E-1,-6.577869415E0,6.943971157E0
1.381226308E0,4.713860750E-1,-6.661618233E0,7.022934437E0
1.383637298E0,2.703889608E-1,-6.776473522E0,7.156932354E0
1.386048287E0,8.135596663E-2,-6.886543751E0,7.334001541E0
1.388459225E0,-9.571290761E-2,-6.977470875E0,7.513463020E0
1.390870214E0,-2.081755698E-1,-6.994220734E0,7.661818027E0
1.393281204E0,-3.756731451E-1,-6.781259537E0,7.719245911E0
1.395692141E0,-5.814558864E-1,-6.410371780E0,7.678567886E0
1.398103131E0,-7.130611539E-1,-6.156732559E0,7.652246952E0
1.400514121E0,-1.411765337E0,-5.446064472E0,7.774280548E0
1.402925058E0,-2.227717876E0,-4.584648132E0,8.042277336E0
1.405336048E0,-2.234896421E0,-4.266402721E0,8.054241180E0
1.407747037E0,-2.014756680E0,-3.976871252E0,7.989634991E0
1.410157975E0,-1.636690736E0,-3.644268990E0,7.944170952E0
1.412568964E0,-7.704889178E-1,-2.859423161E0,8.193024635E0
1.414979954E0,-2.273181528E-1,-2.388036966E0,8.542376518E0
1.417390891E0,-7.657032460E-2,-2.287538528E0,8.805587769E0
1.419801881E0,-3.110669367E-2,-2.306680918E0,9.025727272E0
1.422212871E0,-3.110669367E-2,-2.342573404E0,9.250652313E0
1.424623808E0,-3.110669367E-2,-2.411965132E0,9.487542152E0
1.427034798E0,-3.349951655E-2,-2.462214470E0,9.738788605E0
1.429445787E0,-4.546362907E-2,-2.541177750E0,9.992427826E0
1.431856725E0,-5.024927482E-2,-2.598605394E0,1.025085258E1
1.434267714E0,-6.699903309E-2,-2.648854733E0,1.050209904E1
1.436678704E0,-6.939185411E-2,-2.708675146E0,1.077009487E1
1.439089641E0,-8.853443712E-2,-2.761317253E0,1.101416302E1
1.441500631E0,-1.028913707E-1,-2.811566591E0,1.124865913E1
1.443911621E0,-1.124626622E-1,-2.854637384E0,1.148794174E1
1.446322558E0,-1.244267747E-1,-2.909672260E0,1.169133186E1
1.448733548E0,-1.531406492E-1,-2.955136061E0,1.186840057E1
1.451144537E0,-1.722832322E-1,-2.976671457E0,1.200718403E1
1.453555475E0,-1.938186288E-1,-3.002992392E0,1.214836025E1
1.455966464E0,-2.105683982E-1,-3.022135019E0,1.224168110E1
1.458377454E0,-2.297109663E-1,-3.041277647E0,1.231825066E1
1.460788391E0,-2.416750938E-1,-3.038884640E0,1.236850071E1
1.463199381E0,-2.584248483E-1,-3.041277647E0,1.240678501E1
1.465610371E0,-2.919243574E-1,-3.034099102E0,1.239960670E1
1.468021308E0,-3.062812984E-1,-3.022135019E0,1.237089348E1
1.470432298E0,-3.206382394E-1,-2.988635540E0,1.229671574E1
1.472843287E0,-3.278166950E-1,-2.938386202E0,1.222971630E1
1.475254225E0,-3.541377485E-1,-2.921636343E0,1.213639641E1
1.477665214E0,-3.732803464E-1,-2.880958557E0,1.201196957E1
1.480076204E0,-3.804588020E-1,-2.837887764E0,1.186600780E1
1.482487141E0,-3.948157430E-1,-2.790031195E0,1.170808125E1
1.484898131E0,-3.996013701E-1,-2.739781857E0,1.154297638E1
1.487309121E0,-4.235295951E-1,-2.679961443E0,1.136351490E1
1.489720058E0,-4.331009090E-1,-2.629712105E0,1.118883896E1
1.492131048E0,-4.402793646E-1,-2.589034081E0,1.101894855E1
1.494541985E0,-4.498506486E-1,-2.536391973E0,1.084905815E1
1.496952975E0,-4.689932466E-1,-2.478964329E0,1.068873882E1
1.499363964E0,-4.761717021E-1,-2.419143677E0,1.054277611E1
1.501774902E0,-4.737788737E-1,-2.378465652E0,1.040399265E1
1.504185891E0,-4.809573591E-1,-2.330609322E0,1.028674412E1
1.506596881E0,-4.977070987E-1,-2.299502611E0,1.017188931E1
1.509007818E0,-5.096712112E-1,-2.244467735E0,1.007378292E1
1.511418808E0,-5.288137794E-1,-2.206182480E0,1.001156998E1
1.513829798E0,-5.479564071E-1,-2.177468538E0,9.958928108E0
1.516240735E0,-5.599204898E-1,-2.112862349E0,9.920642853E0
1.518651725E0,-5.718846321E-1,-2.057827473E0,9.918250084E0
1.521062714E0,-5.862415433E-1,-2.029113531E0,9.920642853E0
1.523473652E0,-6.005984545E-1,-1.978864312E0,9.951749802E0
1.525884641E0,-6.173482537E-1,-1.921436548E0,9.975677490E0
1.528295631E0,-6.340979934E-1,-1.880758643E0,1.002831936E1
1.530706568E0,-6.556333899E-1,-1.828116536E0,1.008574772E1
1.533117558E0,-6.723831892E-1,-1.777867198E0,1.015274620E1
1.535528548E0,-6.771687865E-1,-1.725225091E0,1.022692394E1
1.537939485E0,-6.819544435E-1,-1.648654819E0,1.031306553E1
1.540350475E0,-6.987041831E-1,-1.579262972E0,1.038485050E1
1.542761464E0,-6.963114142E-1,-1.507478237E0,1.046142101E1
1.545172402E0,-7.082754970E-1,-1.435693622E0,1.051406288E1
1.547583391E0,-7.226324677E-1,-1.354337573E0,1.056431198E1
1.549994381E0,-7.178468108E-1,-1.261017561E0,1.061216831E1
1.552405318E0,-7.393822074E-1,-1.184447169E0,1.065523911E1
1.554816308E0,-7.513462901E-1,-1.100698471E0,1.069591713E1
1.557227298E0,-7.465606928E-1,-9.906286001E-1,1.071745300E1
1.559638235E0,-7.657032609E-1,-8.590233326E-1,1.072702408E1
1.562049225E0,-6.436693072E-1,-1.213161111E0,3.905086517E0
1.564460214E0,5.982056856E-1,-5.245067120E0,-2.462214470E0
1.566871152E0,5.359922647E-1,-4.223331928E0,1.038485050E0
1.569282141E0,2.201396823E-1,-2.773281336E0,-1.045663476E0
1.571693131E0,-1.579262912E-1,-1.323230863E0,1.531406492E-1
1.574104068E0,-2.440679073E-1,-3.828516304E-1,3.227917671E0
1.576515058E0,-2.847459018E-1,2.368894368E-1,6.742974281E0
1.578926048E0,-2.440679073E-1,3.326023519E-1,6.963113785E0
1.581336985E0,-1.818545163E-1,3.038884699E-1,6.463014126E0
1.583747975E0,-1.052841991E-1,2.560320199E-1,6.262016773E0
1.586158964E0,-4.307080805E-2,2.464607358E-1,6.130411625E0
1.588569902E0,-2.153540403E-2,2.225325108E-1,5.752345562E0
1.590980891E0,7.178467698E-3,1.579262912E-1,5.496313572E0
1.593391881E0,6.221338734E-2,1.459621787E-1,5.551348686E0
1.595802818E0,1.052841991E-1,1.363908947E-1,5.503491879E0
1.598213808E0,1.531406492E-1,1.172483116E-1,5.362315655E0
1.600624798E0,2.057827413E-1,9.332008660E-2,5.462814331E0
1.603035735E0,2.321037948E-1,7.896314561E-2,5.699703693E0
1.605446725E0,2.895315289E-1,5.264209956E-2,5.809773445E0
1.607857714E0,3.493520916E-1,1.914258115E-2,6.015556335E0
1.610268652E0,4.019941986E-1,4.785645287E-3,6.424728870E0
1.612679641E0,4.833501875E-1,0.000000000E0,6.836294174E0
1.615090631E0,5.527420044E-1,-3.110669367E-2,7.156932354E0
1.617501568E0,6.412764788E-1,-7.178468257E-2,7.642675400E0
1.619912558E0,7.178468108E-1,-1.124626622E-1,8.236095428E0
1.622323548E0,7.968099117E-1,-1.579262912E-1,8.729017258E0
1.624734485E0,8.805587292E-1,-2.057827413E-1,9.214759827E0
1.627145475E0,9.738788009E-1,-2.488535494E-1,9.841679573E0
1.629556464E0,1.071984529E0,-2.871387303E-1,1.045902824E1
1.631967402E0,1.148554921E0,-3.541377485E-1,1.095912743E1
1.634378391E0,1.232303619E0,-4.307080805E-1,1.149512005E1
1.636789381E0,1.275374413E0,-5.024927258E-1,1.206700420E1
1.639200318E0,1.320838094E0,-5.862415433E-1,1.256710434E1
1.641611308E0,1.349551916E0,-6.628118753E-1,1.299541950E1
1.644022298E0,1.385444283E0,-7.130611539E-1,1.349551964E1
1.646433235E0,1.390229940E0,-7.752745152E-1,1.398604870E1
1.648844225E0,1.380658627E0,-8.542376757E-1,1.434736443E1
1.651255214E0,1.342373490E0,-9.260223508E-1,1.467757416E1
1.653666152E0,1.304088354E0,-9.882357717E-1,1.504367638E1
1.656077141E0,1.232303619E0,-1.062413216E0,1.532124329E1
1.658488131E0,1.160519004E0,-1.110269666E0,1.551506233E1
1.660899068E0,1.057627559E0,-1.172483087E0,1.566580963E1
1.663310058E0,9.284151793E-1,-1.217946768E0,1.579262924E1
1.665721048E0,8.135597110E-1,-1.246660590E0,1.581416512E1
1.668131985E0,6.723831892E-1,-1.289731383E0,1.575434399E1
1.670542975E0,5.503492355E-1,-1.311266780E0,1.567777443E1
1.672953912E0,3.972085714E-1,-1.325623751E0,1.552463341E1
1.675364902E0,2.392822653E-1,-1.325623751E0,1.530449390E1
1.677775891E0,9.810572863E-2,-1.335195065E0,1.506999683E1
1.680186881E0,-4.307080805E-2,-1.342373490E0,1.482832146E1
1.682597818E0,-1.555334777E-1,-1.320838094E0,1.453161144E1
1.685008808E0,-2.871387303E-1,-1.323230863E0,1.420618820E1
1.687419798E0,-3.996013701E-1,-1.306481123E0,1.389512062E1
1.689830735E0,-5.264210105E-1,-1.320838094E0,1.361516094E1
1.692241725E0,-6.388836503E-1,-1.304088354E0,1.331366539E1
1.694652714E0,-7.178468108E-1,-1.280160069E0,1.303370476E1
1.697063652E0,-8.039883971E-1,-1.263410330E0,1.279920864E1
1.699474641E0,-8.973084688E-1,-1.280160069E0,1.255753326E1
1.701885579E0,-9.834501147E-1,-1.275374413E0,1.233500099E1
1.704296568E0,-1.055234790E0,-1.270588875E0,1.217228889E1
1.706707558E0,-1.127019525E0,-1.280160069E0,1.204307652E1
1.709118496E0,-1.194018483E0,-1.289731383E0,1.194736385E1
1.711529485E0,-1.263410330E0,-1.282552958E0,1.186122227E1
1.713940475E0,-1.337587833E0,-1.294517040E0,1.185404301E1
1.716351412E0,-1.411765337E0,-1.311266780E0,1.184686470E1
1.718762402E0,-1.478764415E0,-1.335195065E0,1.187797165E1
1.721173391E0,-1.548156261E0,-1.363908887E0,1.195932770E1
1.723584329E0,-1.634297848E0,-1.402194023E0,1.207179070E1
1.725995318E0,-1.708475351E0,-1.426122308E0,1.221535969E1
1.728406308E0,-1.792224169E0,-1.447657704E0,1.236371422E1
1.730817246E0,-1.880758643E0,-1.464407444E0,1.255035496E1
1.733228235E0,-1.957328916E0,-1.517049551E0,1.276092339E1
1.735639225E0,-2.029113531E0,-1.552941918E0,1.299063396E1
1.738050162E0,-2.098505497E0,-1.584048629E0,1.321555901E1
1.740461152E0,-2.167897224E0,-1.612762451E0,1.343569946E1
1.742872141E0,-2.239681959E0,-1.665404558E0,1.362712479E1
1.745283079E0,-2.297109842E0,-1.706082582E0,1.383290768E1
1.747694068E0,-2.356930256E0,-1.732403636E0,1.406261826E1
1.750105058E0,-2.407179594E0,-1.756331801E0,1.426600838E1
1.752515996E0,-2.438286304E0,-1.777867198E0,1.443589878E1
1.754926985E0,-2.483749866E0,-1.825723648E0,1.458425426E1
1.757337975E0,-2.498106956E0,-1.861616015E0,1.470868111E1
1.759748912E0,-2.493321180E0,-1.880758643E0,1.481635761E1
1.762159902E0,-2.486142635E0,-1.873580098E0,1.488574982E1
1.764570891E0,-2.457428932E0,-1.892722726E0,1.495274830E1
1.766981829E0,-2.426322222E0,-1.907079697E0,1.498864079E1
1.769392818E0,-2.383251429E0,-1.916650891E0,1.498624802E1
1.771803808E0,-2.354537487E0,-1.899901152E0,1.495992756E1
1.774214746E0,-2.256431818E0,-1.921436548E0,1.492403507E1
1.776625735E0,-2.182254314E0,-1.923829436E0,1.487139320E1
1.779036725E0,-2.096112728E0,-1.904686809E0,1.481396484E1
1.781447662E0,-2.002792597E0,-1.899901152E0,1.473260880E1
1.783858652E0,-1.907079697E0,-1.873580098E0,1.462732506E1
1.786269641E0,-1.789831281E0,-1.868794441E0,1.451486206E1
1.788680579E0,-1.665404558E0,-1.861616015E0,1.438804245E1
1.791091568E0,-1.524227977E0,-1.828116536E0,1.426840115E1
1.793502558E0,-1.406979680E0,-1.785045743E0,1.416551018E1
1.795913496E0,-1.284945726E0,-1.770688772E0,1.404108334E1
1.798324485E0,-1.158126116E0,-1.761117458E0,1.391665649E1
1.800735475E0,-1.007378340E0,-1.725225091E0,1.380419350E1
1.803146412E0,-8.542376757E-1,-1.679761529E0,1.367976665E1
1.805557402E0,-6.987041831E-1,-1.634297848E0,1.356012630E1
1.807968391E0,-5.551348329E-1,-1.610369682E0,1.344527054E1
1.810379329E0,-4.043870270E-1,-1.552941918E0,1.334716511E1
1.812790318E0,-2.392822653E-1,-1.517049551E0,1.322273827E1
1.815201308E0,-1.004985496E-1,-1.442872047E0,1.310788250E1
1.817612246E0,5.024927482E-2,-1.383051515E0,1.298345566E1
1.820023235E0,1.890329868E-1,-1.332802176E0,1.285424328E1
1.822434225E0,3.373879790E-1,-1.275374413E0,1.272024536E1
1.824845162E0,4.881358147E-1,-1.213161111E0,1.257667542E1
1.827256152E0,6.269195080E-1,-1.141376376E0,1.241396427E1
1.829667141E0,7.465606928E-1,-1.081555843E0,1.225843048E1
1.832078079E0,8.470591903E-1,-1.016949654E0,1.212203979E1
1.834489068E0,9.571290612E-1,-9.427721500E-1,1.195693493E1
1.836900058E0,1.038485050E0,-8.733802438E-1,1.177986622E1
1.839310996E0,1.124626637E0,-7.872386575E-1,1.159322548E1
1.841721985E0,1.208375454E0,-7.130611539E-1,1.139462185E1
1.844132975E0,1.261017561E0,-6.604190469E-1,1.119601727E1
1.846543912E0,1.306481123E0,-5.838487148E-1,1.097109222E1
1.848954902E0,1.342373490E0,-5.216353536E-1,1.076291656E1
1.851365891E0,1.349551916E0,-4.426721931E-1,1.057627583E1
1.853776829E0,1.380658627E0,-3.732803464E-1,1.037767220E1
1.856187818E0,1.387837172E0,-3.158525825E-1,1.018863869E1
1.858598808E0,1.368694544E0,-2.536391914E-1,1.000439167E1
1.861009746E0,1.356730461E0,-1.866401732E-1,9.824930191E0
1.863420735E0,1.335195065E0,-1.172483116E-1,9.667003632E0
1.865831725E0,1.316052437E0,-6.221338734E-2,9.537791252E0
1.868242662E0,1.272981644E0,0.000000000E0,9.406186104E0
1.870653652E0,1.234696507E0,5.024927482E-2,9.288937569E0
1.873064641E0,1.179661512E0,1.076770201E-1,9.195617676E0
1.875475579E0,1.122233868E0,1.842473447E-1,9.109476089E0
1.877886568E0,1.062413216E0,2.368894368E-1,9.059226990E0
1.880297558E0,9.882357717E-1,2.967100143E-1,9.044869423E0
1.882708496E0,9.260223508E-1,3.541377485E-1,9.030512810E0
1.885119485E0,8.470591903E-1,4.331009090E-1,9.052047729E0
1.887530475E0,7.633104324E-1,5.000999570E-1,9.092725754E0
1.889941412E0,6.867401004E-1,5.790630579E-1,9.152546883E0
1.892352402E0,5.934200287E-1,6.556333899E-1,9.243474007E0
1.894763391E0,4.905286431E-1,7.250252366E-1,9.358329773E0
1.897174329E0,3.948157430E-1,7.944171429E-1,9.494720459E0
1.899585318E0,2.895315289E-1,8.709874153E-1,9.635896683E0
1.901996308E0,1.962114573E-1,9.762716293E-1,9.784252167E0
1.904407246E0,7.178468257E-2,1.038485050E0,9.944570541E0
1.906818235E0,-4.307080805E-2,1.117448211E0,1.012403297E1
1.909229225E0,-1.770688742E-1,1.208375454E0,1.029392338E1
1.911640162E0,-3.086741269E-1,1.265803218E0,1.046142101E1
1.914051152E0,-4.259224236E-1,1.359123230E0,1.062173939E1
1.916462141E0,-5.670989752E-1,1.421336651E0,1.079402256E1
1.918873079E0,-7.010970116E-1,1.485942841E0,1.093998528E1
1.921284068E0,-8.279166222E-1,1.548156261E0,1.107159042E1
1.923695058E0,-9.643075466E-1,1.603191137E0,1.117448139E1
1.926105996E0,-1.086341500E0,1.665404558E0,1.127258778E1
1.928516985E0,-1.208375454E0,1.722832322E0,1.133240795E1
1.930927975E0,-1.325623751E0,1.746760488E0,1.137069321E1
1.933338912E0,-1.430907965E0,1.770688772E0,1.137547874E1
1.935749902E0,-1.521835208E0,1.806581140E0,1.135394382E1
1.938160891E0,-1.610369682E0,1.816152334E0,1.128215885E1
1.940571829E0,-1.660618901E0,1.820937991E0,1.118883896E1
1.942982818E0,-1.727617979E0,1.808973908E0,1.107398319E1
1.945393808E0,-1.763510346E0,1.777867198E0,1.091366386E1
1.947804746E0,-1.799402595E0,1.777867198E0,1.072941685E1
1.950215735E0,-1.828116536E0,1.765903115E0,1.052124119E1
1.952626725E0,-1.816152334E0,1.718046665E0,1.028435135E1
1.955037662E0,-1.811366796E0,1.682154298E0,1.004506969E1
1.957448652E0,-1.808973908E0,1.639083505E0,9.801001549E0
1.959859641E0,-1.777867198E0,1.579262972E0,9.556933403E0
1.962270579E0,-1.749153376E0,1.533799291E0,9.300901413E0
1.964681568E0,-1.720439434E0,1.485942841E0,9.049654961E0
1.967092558E0,-1.677368641E0,1.435693622E0,8.807980537E0
1.969503496E0,-1.619940877E0,1.392622828E0,8.590232849E0
1.971914485E0,-1.579262972E0,1.368694544E0,8.379665375E0
1.974325475E0,-1.552941918E0,1.306481123E0,8.190631866E0
1.976736412E0,-1.495514154E0,1.275374413E0,8.011170387E0
1.979147402E0,-1.438086390E0,1.253839016E0,7.860422611E0
1.981558391E0,-1.406979680E0,1.208375454E0,7.738388538E0
1.983969329E0,-1.359123230E0,1.174875975E0,7.635497093E0
1.986380318E0,-1.316052437E0,1.158126116E0,7.556533813E0
1.988791308E0,-1.282552958E0,1.136590719E0,7.494320393E0
1.991202246E0,-1.251446247E0,1.127019525E0,7.451249599E0
1.993613235E0,-1.213161111E0,1.122233868E0,7.424928665E0
1.996024173E0,-1.160519004E0,1.098305583E0,7.448856831E0
1.998435162E0,-1.131805062E0,1.091127157E0,7.482356548E0
2.000846152E0,-1.115055323E0,1.107876897E0,7.542177200E0
2.003257141E0,-1.079162955E0,1.103091240E0,7.628318787E0
2.005668079E0,-1.028913736E0,1.098305583E0,7.752745152E0
2.008079068E0,-9.978070259E-1,1.091127157E0,7.901100159E0
2.010490058E0,-9.690931439E-1,1.112662554E0,8.070990562E0
2.012900996E0,-9.068797827E-1,1.122233868E0,8.243273735E0
2.015311985E0,-8.614161611E-1,1.124626637E0,8.429914474E0
2.017722923E0,-8.087740541E-1,1.122233868E0,8.654839516E0
2.020133912E0,-7.537391186E-1,1.119840980E0,8.867800713E0
2.022544902E0,-6.843472719E-1,1.136590719E0,9.073583603E0
2.024955891E0,-6.149554253E-1,1.124626637E0,9.286544800E0
2.027366829E0,-5.455635786E-1,1.136590719E0,9.489934921E0
2.029777818E0,-4.594219327E-1,1.129412293E0,9.686145782E0
2.032188808E0,-3.900300860E-1,1.127019525E0,9.872786522E0
2.034599746E0,-3.134597540E-1,1.115055323E0,1.003549862E1
2.037010735E0,-2.249253243E-1,1.093519926E0,1.018146038E1
2.039421673E0,-1.292124242E-1,1.079162955E0,1.031306553E1
2.041832662E0,-3.828516230E-2,1.071984529E0,1.040877819E1
2.044243652E0,4.546362907E-2,1.026520967E0,1.048774147E1
2.046654641E0,1.316052526E-1,9.954141974E-1,1.053799057E1
2.049065579E0,2.297109663E-1,9.499505758E-1,1.055952644E1
2.051476568E0,2.919243574E-1,9.260223508E-1,1.055234814E1
2.053887558E0,3.732803464E-1,8.614161611E-1,1.051645565E1
2.056298496E0,4.570291340E-1,8.087740541E-1,1.044227791E1
2.058709485E0,5.288137794E-1,7.752745152E-1,1.032981491E1
2.061120475E0,5.910272002E-1,7.322037220E-1,1.018624592E1
2.063531412E0,6.484549642E-1,6.795616150E-1,1.001396275E1
2.065942402E0,6.747759581E-1,6.245267391E-1,9.822537422E0
2.068353391E0,7.082754970E-1,5.742774606E-1,9.607182503E0
2.070764329E0,7.226324677E-1,5.144568682E-1,9.379864693E0
2.073175318E0,7.274180651E-1,4.570291340E-1,9.138189316E0
2.075586308E0,7.489534616E-1,4.163511395E-1,8.906085968E0
2.077997246E0,7.322037220E-1,3.852444589E-1,8.666803360E0
2.080408235E0,7.178468108E-1,3.445664644E-1,8.415556908E0
2.082819225E0,7.178468108E-1,2.895315289E-1,8.181060791E0
2.085230162E0,7.082754970E-1,2.440679073E-1,7.963313580E0
2.087641152E0,6.987041831E-1,2.081755698E-1,7.764709473E0
2.090052141E0,6.771687865E-1,1.722832322E-1,7.573283672E0
2.092463079E0,6.580262184E-1,1.435693651E-1,7.415357590E0
2.094874068E0,6.317051649E-1,1.100698411E-1,7.271788120E0
2.097285058E0,6.053841114E-1,8.135596663E-2,7.140182972E0
2.099695996E0,6.005984545E-1,7.178468257E-2,7.042077065E0
2.102106985E0,5.670989752E-1,4.307080805E-2,6.955935478E0
2.104517923E0,5.359922647E-1,1.674975827E-2,6.879364967E0
2.106928912E0,5.096712112E-1,-4.785645287E-3,6.848258495E0
2.109339902E0,4.785645306E-1,-2.871387079E-2,6.819544315E0
2.111750839E0,4.522434771E-1,-3.828516230E-2,6.824330330E0
2.114161829E0,4.378865361E-1,-7.417750359E-2,6.836294174E0
2.116572818E0,4.043870270E-1,-9.571290761E-2,6.879364967E0
2.118983808E0,3.732803464E-1,-1.100698411E-1,6.920042992E0
2.121394746E0,3.421736360E-1,-1.100698411E-1,7.025327206E0
2.123805735E0,3.182454109E-1,-1.316052526E-1,7.144968510E0
2.126216673E0,2.775674164E-1,-1.555334777E-1,7.278966427E0
2.128627662E0,2.536391914E-1,-1.770688742E-1,7.446464062E0
2.131038652E0,2.225325108E-1,-2.057827413E-1,7.652246952E0
2.133449641E0,1.794617027E-1,-2.177468538E-1,7.855636597E0
2.135860579E0,1.483550072E-1,-2.344966233E-1,8.075776100E0
2.138271568E0,1.124626622E-1,-2.608176768E-1,8.315058708E0
2.140682558E0,6.221338734E-2,-2.967100143E-1,8.587840080E0
2.143093496E0,9.571290575E-3,-3.206382394E-1,8.858229637E0
2.145504485E0,-4.546362907E-2,-3.134597540E-1,9.107083321E0
2.147915423E0,-9.571290761E-2,-3.373879790E-1,9.367900848E0
2.150326412E0,-1.483550072E-1,-3.589234054E-1,9.623932838E0
2.152737402E0,-2.129612118E-1,-3.852444589E-1,9.879964828E0
2.155148339E0,-2.847459018E-1,-4.067798555E-1,1.011924744E1
2.157559329E0,-3.493520916E-1,-4.067798555E-1,1.033938694E1
2.159970318E0,-4.211367965E-1,-4.139583111E-1,1.057627583E1
2.162381256E0,-4.881358147E-1,-4.522434771E-1,1.074855900E1
2.164792246E0,-5.551348329E-1,-4.618147612E-1,1.092562866E1
2.167203235E0,-6.221339107E-1,-4.785645306E-1,1.106919765E1
2.169614173E0,-6.867401004E-1,-4.713860750E-1,1.119362450E1
2.172025162E0,-7.417750359E-1,-4.881358147E-1,1.127258778E1
2.174436152E0,-8.159525394E-1,-4.929214716E-1,1.133001518E1
2.176847141E0,-8.733802438E-1,-5.072783828E-1,1.135155106E1
2.179258079E0,-9.260223508E-1,-5.000999570E-1,1.133240795E1
2.181669068E0,-9.762716293E-1,-4.953143001E-1,1.128694439E1
2.184080006E0,-1.009771109E0,-4.977070987E-1,1.119601727E1
2.186490996E0,-1.040877819E0,-4.833501875E-1,1.109551907E1
2.188901985E0,-1.071984529E0,-4.689932466E-1,1.094237804E1
2.191312923E0,-1.091127157E0,-4.570291340E-1,1.077727318E1
2.193723912E0,-1.103091240E0,-4.426721931E-1,1.057149029E1
2.196134902E0,-1.115055323E0,-4.307080805E-1,1.036331463E1
2.198545839E0,-1.117448211E0,-4.235295951E-1,1.014078236E1
2.200956829E0,-1.119840980E0,-4.091726840E-1,9.915857315E0
2.203367818E0,-1.119840980E0,-3.684946895E-1,9.676574707E0
2.205778756E0,-1.107876897E0,-3.493520916E-1,9.451649666E0
2.208189746E0,-1.105484009E0,-3.206382394E-1,9.236295700E0
2.210600735E0,-1.079162955E0,-3.158525825E-1,9.018548965E0
2.213011673E0,-1.045663476E0,-2.943171859E-1,8.822337151E0
2.215422662E0,-1.036092162E0,-2.895315289E-1,8.638090134E0
2.217833652E0,-1.024128079E0,-2.727817893E-1,8.458627701E0
2.220244589E0,-1.012163997E0,-2.584248483E-1,8.303094864E0
2.222655579E0,-1.007378340E0,-2.344966233E-1,8.178668022E0
2.225066568E0,-9.978070259E-1,-2.344966233E-1,8.049455643E0
2.227477506E0,-9.906286001E-1,-2.033899277E-1,7.977670670E0
2.229888496E0,-9.714859724E-1,-1.962114573E-1,7.898707390E0
2.232299485E0,-9.762716293E-1,-1.794617027E-1,7.836493969E0
2.234710423E0,-9.667003751E-1,-1.674975902E-1,7.824530125E0
2.237121412E0,-9.499505758E-1,-1.603191197E-1,7.819744587E0
2.239532402E0,-9.379864931E-1,-1.435693651E-1,7.850851059E0
2.241943339E0,-9.451649189E-1,-1.172483116E-1,7.903493404E0
2.244354329E0,-9.619147182E-1,-1.148554832E-1,7.977670670E0
2.246765318E0,-9.499505758E-1,-9.571290761E-2,8.059026718E0
2.249176308E0,-9.332008362E-1,-8.374879509E-2,8.176275253E0
2.251587246E0,-9.355936646E-1,-8.374879509E-2,8.327022552E0
2.253998235E0,-9.332008362E-1,-4.067798331E-2,8.480163574E0
2.256409173E0,-9.284151793E-1,-2.632104978E-2,8.642875671E0
2.258820162E0,-9.236295223E-1,-9.571290575E-3,8.824729919E0
2.261231152E0,-9.092726111E-1,1.196411345E-2,9.006584167E0
2.263642089E0,-8.901300430E-1,5.024927482E-2,9.193224907E0
2.266053079E0,-8.829515576E-1,6.460621208E-2,9.372686386E0
2.268464068E0,-8.781659007E-1,8.853443712E-2,9.561718941E0
2.270875058E0,-8.494520187E-1,1.268195957E-1,9.738788605E0
2.273285996E0,-8.111668825E-1,1.483550072E-1,9.891928673E0
2.275696985E0,-7.657032609E-1,1.842473447E-1,1.004506969E1
2.278107923E0,-7.274180651E-1,2.321037948E-1,1.019820976E1
2.280518912E0,-6.867401004E-1,2.536391914E-1,1.032024384E1
2.282929902E0,-6.364908218E-1,2.919243574E-1,1.043749237E1
2.285340891E0,-5.838487148E-1,3.493520916E-1,1.053081226E1
2.287751829E0,-5.240281820E-1,3.996013701E-1,1.059541893E1
2.290162818E0,-4.833501875E-1,4.259224236E-1,1.065523911E1
2.292573808E0,-4.187439680E-1,4.618147612E-1,1.068395329E1
2.294984746E0,-3.469592929E-1,4.881358147E-1,1.069113159E1
2.297395735E0,-2.871387303E-1,5.359922647E-1,1.067677498E1
2.299806673E0,-2.129612118E-1,5.694918036E-1,1.062413216E1
2.302217662E0,-1.483550072E-1,5.910272002E-1,1.056909752E1
2.304628652E0,-8.374879509E-2,6.293123364E-1,1.049013424E1
2.307039641E0,-9.571290575E-3,6.891329288E-1,1.038963604E1
2.309450579E0,3.349951655E-2,7.058826685E-1,1.026520920E1
2.311861568E0,9.810572863E-2,7.489534616E-1,1.011924744E1
2.314272558E0,1.579262912E-1,7.680960894E-1,9.961320877E0
2.316683496E0,2.081755698E-1,8.111668825E-1,9.786644936E0
2.319094485E0,2.488535494E-1,8.350951076E-1,9.609575272E0
2.321505423E0,2.871387303E-1,8.590233326E-1,9.437292099E0
2.323916412E0,3.397808075E-1,8.733802438E-1,9.241081238E0
2.326327402E0,3.708875179E-1,8.901300430E-1,9.037691116E0
2.328738391E0,3.996013701E-1,9.020941257E-1,8.846264839E0
2.331149329E0,4.354937077E-1,8.997012973E-1,8.654839516E0
2.333560318E0,4.450650215E-1,9.188438654E-1,8.482556343E0
2.335971308E0,4.642075896E-1,9.332008362E-1,8.310273170E0
2.338382246E0,4.977070987E-1,9.451649189E-1,8.169096947E0
2.340793235E0,4.977070987E-1,9.714859724E-1,8.030312538E0
2.343204173E0,4.929214716E-1,9.930213690E-1,7.901100159E0
2.345615162E0,4.905286431E-1,1.002592683E0,7.791030407E0
2.348026152E0,5.000999570E-1,1.014556766E0,7.697710514E0
2.350437141E0,5.072783828E-1,1.028913736E0,7.623532772E0
2.352848079E0,5.096712112E-1,1.038485050E0,7.570890903E0
2.355259068E0,4.881358147E-1,1.069591761E0,7.546962738E0
2.357670058E0,4.713860750E-1,1.071984529E0,7.546962738E0
2.360080996E0,4.713860750E-1,1.093519926E0,7.563712597E0
2.362491985E0,4.761717021E-1,1.117448211E0,7.578069210E0
2.364902975E0,4.474578202E-1,1.146162033E0,7.613961697E0
2.367313912E0,4.115654826E-1,1.172483087E0,7.683353424E0
2.369724902E0,4.019941986E-1,1.208375454E0,7.781459332E0
2.372135891E0,3.756731451E-1,1.239482164E0,7.881958008E0
2.374546829E0,3.517449200E-1,1.270588875E0,8.006384850E0
2.376957818E0,3.206382394E-1,1.304088354E0,8.140382767E0
2.379368756E0,2.967100143E-1,1.337587833E0,8.288737297E0
2.381779746E0,2.440679073E-1,1.366301775E0,8.446663857E0
2.384190735E0,2.225325108E-1,1.402194023E0,8.621339798E0
2.386601725E0,1.794617027E-1,1.421336651E0,8.791230202E0
2.389012662E0,1.268195957E-1,1.450050473E0,8.944371223E0
2.391423652E0,8.135596663E-2,1.481157184E0,9.109476089E0
2.393834589E0,1.674975827E-2,1.505085468E0,9.286544800E0
2.396245579E0,-3.589234129E-2,1.536192179E0,9.458827972E0
2.398656568E0,-1.100698411E-1,1.557727575E0,9.623932838E0
2.401067558E0,-1.746760458E-1,1.562513232E0,9.777072906E0
2.403478496E0,-2.440679073E-1,1.567298889E0,9.913464546E0
2.405889485E0,-3.254238665E-1,1.588834286E0,1.004746246E1
2.408300475E0,-3.972085714E-1,1.593619823E0,1.017428207E1
2.410711412E0,-4.737788737E-1,1.588834286E0,1.028435135E1
2.413122402E0,-5.431707501E-1,1.584048629E0,1.038245773E1
2.415533391E0,-6.149554253E-1,1.572084427E0,1.047577763E1
2.417944329E0,-6.987041831E-1,1.564906001E0,1.055474091E1
2.420355318E0,-7.776673436E-1,1.521835208E0,1.061934662E1
2.422766308E0,-8.518448472E-1,1.490728498E0,1.067198944E1
2.425177246E0,-9.188438654E-1,1.452443361E0,1.070788097E1
2.427588235E0,-9.738788009E-1,1.435693622E0,1.073180962E1
2.429999225E0,-1.026520967E0,1.383051515E0,1.074138069E1
2.432410162E0,-1.069591761E0,1.328016520E0,1.073659515E1
2.434821152E0,-1.115055323E0,1.301695466E0,1.071266651E1
2.437232141E0,-1.165304661E0,1.263410330E0,1.067677498E1
2.439643079E0,-1.191625714E0,1.196411371E0,1.066002464E1
2.442054068E0,-1.208375454E0,1.134197950E0,1.060499001E1
2.444465058E0,-1.244267821E0,1.088734269E0,1.054516983E1
2.446875996E0,-1.272981644E0,1.012163997E0,1.049731255E1
2.449286985E0,-1.280160069E0,9.810572863E-1,1.043031406E1
2.451697975E0,-1.280160069E0,9.140582681E-1,1.037767220E1
2.454108912E0,-1.296909928E0,8.494520187E-1,1.032742214E1
2.456519902E0,-1.301695466E0,7.992027402E-1,1.028435135E1
2.458930891E0,-1.292124271E0,7.561319470E-1,1.023649502E1
2.461341829E0,-1.287338614E0,6.963114142E-1,1.020299530E1
2.463752818E0,-1.277767301E0,6.436693072E-1,1.018146038E1
2.466163808E0,-1.272981644E0,5.838487148E-1,1.015992451E1
2.468574746E0,-1.256231904E0,5.407779217E-1,1.015753174E1
2.470985735E0,-1.234696507E0,4.905286431E-1,1.018385315E1
2.473396725E0,-1.229910851E0,4.378865361E-1,1.021735287E1
2.475807662E0,-1.215553880E0,3.948157430E-1,1.027717304E1
2.478218652E0,-1.205982566E0,3.613162339E-1,1.033699417E1
2.480629641E0,-1.189232826E0,3.110669553E-1,1.043270683E1
2.483040579E0,-1.172483087E0,2.656033039E-1,1.054277611E1
2.485451568E0,-1.138983607E0,2.225325108E-1,1.066720295E1
2.487862558E0,-1.112662554E0,1.698904037E-1,1.080359459E1
2.490273496E0,-1.083948612E0,1.435693651E-1,1.093759251E1
2.492684485E0,-1.045663476E0,9.332008660E-2,1.109791183E1
2.495095475E0,-1.014556766E0,6.699903309E-2,1.127019501E1
2.497506412E0,-9.762716293E-1,2.392822644E-3,1.145444202E1
2.499917402E0,-9.355936646E-1,-2.871387079E-2,1.164586735E1
2.502328391E0,-8.877372146E-1,-9.810572863E-2,1.184207916E1
2.504739329E0,-8.398807645E-1,-1.483550072E-1,1.203589821E1
2.507150318E0,-7.872386575E-1,-1.698904037E-1,1.223928738E1
2.509561308E0,-7.417750359E-1,-2.344966233E-1,1.240439224E1
2.511972246E0,-6.819544435E-1,-2.727817893E-1,1.256710434E1
2.514383235E0,-6.101697683E-1,-3.158525825E-1,1.272263813E1
2.516794225E0,-5.575276613E-1,-3.756731451E-1,1.287577820E1
2.519205162E0,-4.929214716E-1,-4.307080805E-1,1.301934814E1
2.521616152E0,-4.235295951E-1,-4.929214716E-1,1.316291714E1
2.524027141E0,-3.589234054E-1,-5.503492355E-1,1.327777290E1
2.526438079E0,-2.943171859E-1,-6.173482537E-1,1.337348557E1
2.528849068E0,-2.321037948E-1,-6.843472719E-1,1.347159195E1
2.531260058E0,-1.579262912E-1,-7.226324677E-1,1.354337597E1
2.533670996E0,-9.332008660E-2,-7.752745152E-1,1.360319710E1
2.536081985E0,-3.349951655E-2,-8.350951076E-1,1.362951756E1
2.538492975E0,2.871387079E-2,-8.877372146E-1,1.366062450E1
2.540903912E0,8.614161611E-2,-9.475577474E-1,1.364866066E1
2.543314902E0,1.531406492E-1,-1.000199914E0,1.363430309E1
2.545725891E0,1.986042857E-1,-1.064806104E0,1.360319710E1
2.548136829E0,2.464607358E-1,-1.117448211E0,1.356012630E1
2.550547818E0,3.014956415E-1,-1.146162033E0,1.349791241E1
2.552958808E0,3.421736360E-1,-1.191625714E0,1.341655636E1
2.555369746E0,3.661018610E-1,-1.234696507E0,1.331845093E1
2.557780735E0,3.804588020E-1,-1.280160069E0,1.321795273E1
2.560191725E0,3.924229145E-1,-1.311266780E0,1.311266804E1
2.562602662E0,4.187439680E-1,-1.323230863E0,1.299302673E1
2.565013652E0,4.307080805E-1,-1.363908887E0,1.288295746E1
2.567424641E0,4.354937077E-1,-1.404586911E0,1.275374508E1
2.569835579E0,4.402793646E-1,-1.423729420E0,1.264606762E1
2.572246568E0,4.354937077E-1,-1.442872047E0,1.253360462E1
2.574657558E0,4.498506486E-1,-1.476371527E0,1.242592812E1
2.577068496E0,4.331009090E-1,-1.507478237E0,1.233260822E1
2.579479485E0,4.115654826E-1,-1.507478237E0,1.224168110E1
2.581890475E0,3.732803464E-1,-1.517049551E0,1.217228889E1
2.584301412E0,3.469592929E-1,-1.529013634E0,1.212682533E1
2.586712402E0,3.326023519E-1,-1.540977836E0,1.209093285E1
2.589123391E0,3.086741269E-1,-1.536192179E0,1.206939697E1
2.591534329E0,2.871387303E-1,-1.564906001E0,1.206461143E1
2.593945318E0,2.512463629E-1,-1.579262972E0,1.207657623E1
2.596356308E0,2.057827413E-1,-1.593619823E0,1.211007500E1
2.598767246E0,1.698904037E-1,-1.605584025E0,1.215793228E1
2.601178235E0,1.148554832E-1,-1.610369682E0,1.224407387E1
2.603589225E0,1.028913707E-1,-1.627119422E0,1.234457207E1
2.606000162E0,5.024927482E-2,-1.636690736E0,1.242832088E1
2.608411152E0,-2.392822644E-3,-1.634297848E0,1.256231880E1
2.610822141E0,-6.460621208E-2,-1.670190215E0,1.269870949E1
2.613233079E0,-8.853443712E-2,-1.679761529E0,1.284706497E1
2.615644068E0,-1.363908947E-1,-1.686939955E0,1.302174091E1
2.618055058E0,-1.938186288E-1,-1.689332843E0,1.317488194E1
2.620465996E0,-2.751746178E-1,-1.706082582E0,1.335195065E1
2.622876985E0,-3.278166950E-1,-1.715653777E0,1.352184105E1
2.625287975E0,-3.852444589E-1,-1.701296926E0,1.368215942E1
2.627698912E0,-4.426721931E-1,-1.722832322E0,1.385922909E1
2.630109902E0,-5.144568682E-1,-1.725225091E0,1.400519085E1
2.632520891E0,-5.838487148E-1,-1.720439434E0,1.413679600E1
2.634931829E0,-6.484549642E-1,-1.718046665E0,1.425404453E1
2.637342818E0,-7.178468108E-1,-1.706082582E0,1.438564968E1
2.639753808E0,-7.561319470E-1,-1.682154298E0,1.445982742E1
2.642164746E0,-8.231309652E-1,-1.677368641E0,1.452443314E1
2.644575735E0,-8.877372146E-1,-1.641476393E0,1.457707596E1
2.646986725E0,-9.379864931E-1,-1.636690736E0,1.459621811E1
2.649397662E0,-9.858429432E-1,-1.617548108E0,1.458425426E1
2.651808652E0,-1.028913736E0,-1.593619823E0,1.455314732E1
2.654219641E0,-1.064806104E0,-1.557727575E0,1.450529099E1
2.656630631E0,-1.110269666E0,-1.512263894E0,1.441675663E1
2.659041568E0,-1.155733347E0,-1.471585870E0,1.430190086E1
2.661452558E0,-1.170090318E0,-1.430907965E0,1.417747402E1
2.663863496E0,-1.186840057E0,-1.378265858E0,1.404347610E1
2.666274485E0,-1.196411371E0,-1.323230863E0,1.386880016E1
2.668685475E0,-1.210768223E0,-1.287338614E0,1.368933868E1
2.671096412E0,-1.225125194E0,-1.241874933E0,1.350509071E1
2.673507402E0,-1.217946768E0,-1.191625714E0,1.332562923E1
2.675918391E0,-1.217946768E0,-1.150947690E0,1.313181114E1
2.678329329E0,-1.210768223E0,-1.103091240E0,1.291167068E1
2.680740318E0,-1.196411371E0,-1.057627559E0,1.271067429E1
2.683151308E0,-1.182054400E0,-1.028913736E0,1.252164078E1
2.685562246E0,-1.165304661E0,-9.643075466E-1,1.232782269E1
2.687973235E0,-1.150947690E0,-9.355936646E-1,1.216032505E1
2.690384225E0,-1.146162033E0,-8.901300430E-1,1.200957680E1
2.692795214E0,-1.115055323E0,-8.470591903E-1,1.185643578E1
2.695206152E0,-1.098305583E0,-8.279166222E-1,1.172722340E1
2.697617141E0,-1.071984529E0,-8.087740541E-1,1.161476135E1
2.700028131E0,-1.055234790E0,-7.537391186E-1,1.149751282E1
2.702439068E0,-1.045663476E0,-7.202396393E-1,1.140658569E1
2.704850058E0,-1.026520967E0,-6.723831892E-1,1.132762241E1
2.707261048E0,-1.002592683E0,-6.364908218E-1,1.126540947E1
2.709671985E0,-9.834501147E-1,-6.053841114E-1,1.123190975E1
2.712082975E0,-9.475577474E-1,-5.527420044E-1,1.120798111E1
2.714493964E0,-9.284151793E-1,-5.383850932E-1,1.120558834E1
2.716904902E0,-8.949156404E-1,-5.240281820E-1,1.119601727E1
2.719315891E0,-8.614161611E-1,-4.713860750E-1,1.122473145E1
2.721726829E0,-8.446664214E-1,-4.594219327E-1,1.125344467E1
2.724137818E0,-8.183453679E-1,-4.235295951E-1,1.128694439E1
2.726548808E0,-7.896314859E-1,-3.852444589E-1,1.133001518E1
2.728959746E0,-7.465606928E-1,-3.541377485E-1,1.136830044E1
2.731370735E0,-7.154539824E-1,-3.230310678E-1,1.140419292E1
2.733781725E0,-6.795616150E-1,-2.799602449E-1,1.145683479E1
2.736192714E0,-6.269195080E-1,-2.512463629E-1,1.149272728E1
2.738603652E0,-5.886343718E-1,-2.177468538E-1,1.153819084E1
2.741014641E0,-5.479564071E-1,-1.938186288E-1,1.155972576E1
2.743425579E0,-4.977070987E-1,-1.603191197E-1,1.158126163E1
2.745836568E0,-4.546363056E-1,-1.435693651E-1,1.158604717E1
2.748247558E0,-4.043870270E-1,-1.004985496E-1,1.157647610E1
2.750658548E0,-3.517449200E-1,-6.939185411E-2,1.155254745E1
2.753069485E0,-2.991028428E-1,-2.632104978E-2,1.149272728E1
2.755480475E0,-2.440679073E-1,1.435693540E-2,1.145204926E1
2.757891464E0,-1.890329868E-1,4.546362907E-2,1.136830044E1
2.760302402E0,-1.507478207E-1,7.896314561E-2,1.127019501E1
2.762713391E0,-1.148554832E-1,1.004985496E-1,1.116251755E1
2.765124381E0,-7.417750359E-2,1.507478207E-1,1.103091240E1
2.767535318E0,-4.067798331E-2,1.722832322E-1,1.090887833E1
2.769946308E0,9.571290575E-3,1.866401732E-1,1.075334454E1
2.772357298E0,5.264209956E-2,2.249253243E-1,1.058345413E1
2.774768235E0,9.810572863E-2,2.464607358E-1,1.040159988E1
2.777179225E0,1.411765367E-1,2.632105052E-1,1.022213840E1
2.779590214E0,1.579262912E-1,2.895315289E-1,1.003310490E1
2.782001152E0,1.890329868E-1,3.158525825E-1,9.848857880E0
2.784412141E0,2.105683982E-1,3.397808075E-1,9.647860527E0
2.786823131E0,2.201396823E-1,3.517449200E-1,9.477970123E0
2.789234068E0,2.416750938E-1,3.780659735E-1,9.308079720E0
2.791645058E0,2.512463629E-1,3.900300860E-1,9.133403778E0
2.794056048E0,2.632105052E-1,4.091726840E-1,8.965906143E0
2.796466985E0,2.703889608E-1,4.115654826E-1,8.803194046E0
2.798877975E0,2.632105052E-1,4.235295951E-1,8.669196129E0
2.801288964E0,2.943171859E-1,4.450650215E-1,8.528019905E0
2.803699902E0,2.871387303E-1,4.498506486E-1,8.394021988E0
2.806110891E0,2.967100143E-1,4.761717021E-1,8.281558990E0
2.808521881E0,2.943171859E-1,4.977070987E-1,8.181060791E0
2.810932818E0,2.727817893E-1,4.905286431E-1,8.087740898E0
2.813343808E0,2.488535494E-1,4.785645306E-1,8.011170387E0
2.815754798E0,2.344966233E-1,5.000999570E-1,7.946564198E0
2.818165735E0,2.321037948E-1,5.216353536E-1,7.896314621E0
2.820576725E0,2.105683982E-1,5.072783828E-1,7.853243828E0
2.822987714E0,2.033899277E-1,5.240281820E-1,7.836493969E0
2.825398652E0,1.746760458E-1,5.168496966E-1,7.822137356E0
2.827809641E0,1.746760458E-1,5.335994363E-1,7.817351341E0
2.830220631E0,1.651047617E-1,5.455635786E-1,7.822137356E0
2.832631568E0,1.316052526E-1,5.551348329E-1,7.853243828E0
2.835042558E0,1.124626622E-1,5.670989752E-1,7.896314621E0
2.837453548E0,9.571290761E-2,5.599204898E-1,7.946564198E0
2.839864485E0,5.982056633E-2,5.647061467E-1,8.008777618E0
2.842275475E0,3.828516230E-2,5.742774606E-1,8.070990562E0
2.844686464E0,-4.785645287E-3,5.742774606E-1,8.145168304E0
2.847097402E0,-2.871387079E-2,5.862415433E-1,8.226524353E0
2.849508391E0,-5.742774159E-2,5.694918036E-1,8.317451477E0
2.851919381E0,-9.810572863E-2,5.838487148E-1,8.386843681E0
2.854330318E0,-1.435693651E-1,5.862415433E-1,8.480163574E0
2.856741308E0,-1.842473447E-1,6.053841114E-1,8.575876236E0
2.859152298E0,-2.201396823E-1,6.005984545E-1,8.664410591E0
2.861563235E0,-2.632105052E-1,5.958128572E-1,8.745766640E0
2.863974225E0,-2.991028428E-1,5.886343718E-1,8.829515457E0
2.866385214E0,-3.373879790E-1,5.814558864E-1,8.891729355E0
2.868796152E0,-3.732803464E-1,5.599204898E-1,8.949156761E0
2.871207141E0,-4.115654826E-1,5.575276613E-1,9.004191399E0
2.873618131E0,-4.594219327E-1,5.503492355E-1,9.064012527E0
2.876029068E0,-5.000999570E-1,5.288137794E-1,9.102297783E0
2.878440058E0,-5.120640397E-1,5.144568682E-1,9.131011009E0
2.880851048E0,-5.551348329E-1,5.000999570E-1,9.145368576E0
2.883261985E0,-5.958128572E-1,4.857429862E-1,9.154939651E0
2.885672975E0,-6.340979934E-1,4.666004181E-1,9.152546883E0
2.888083964E0,-6.508477330E-1,4.498506486E-1,9.128618240E0
2.890494902E0,-6.771687865E-1,4.235295951E-1,9.083154678E0
2.892905891E0,-6.867401004E-1,3.852444589E-1,9.049654961E0
2.895316881E0,-7.345965505E-1,3.804588020E-1,9.016156197E0
2.897727818E0,-7.417750359E-1,3.589234054E-1,8.956335068E0
2.900138808E0,-7.489534616E-1,3.230310678E-1,8.901300430E0
2.902549798E0,-7.896314859E-1,3.038884699E-1,8.839086533E0
2.904960735E0,-7.944171429E-1,2.871387303E-1,8.779266357E0
2.907371725E0,-8.231309652E-1,2.608176768E-1,8.719446182E0
2.909782714E0,-8.231309652E-1,2.321037948E-1,8.647661209E0
2.912193704E0,-8.207381964E-1,2.009970993E-1,8.583054543E0
2.914604641E0,-8.255237937E-1,1.651047617E-1,8.535198212E0
2.917015631E0,-8.327022791E-1,1.483550072E-1,8.487341881E0
2.919426568E0,-8.279166222E-1,1.268195957E-1,8.444271088E0
2.921837558E0,-8.422735929E-1,1.124626622E-1,8.420342445E0
2.924248548E0,-8.350951076E-1,8.853443712E-2,8.391629219E0
2.926659485E0,-8.350951076E-1,5.264209956E-2,8.367700577E0
2.929070475E0,-8.255237937E-1,2.871387079E-2,8.370093346E0
2.931481464E0,-8.231309652E-1,0.000000000E0,8.377271652E0
2.933892402E0,-8.279166222E-1,-2.632104978E-2,8.374878883E0
2.936303391E0,-8.063812256E-1,-3.349951655E-2,8.389236450E0
2.938714381E0,-8.015955687E-1,-5.503492057E-2,8.415556908E0
2.941125318E0,-8.111668825E-1,-8.374879509E-2,8.446663857E0
2.943536308E0,-8.087740541E-1,-9.571290761E-2,8.484949112E0
2.945947298E0,-8.183453679E-1,-1.244267747E-1,8.559126854E0
2.948358287E0,-8.015955687E-1,-1.579262912E-1,8.621339798E0
2.950769225E0,-7.896314859E-1,-1.914258152E-1,8.690732002E0
2.953180214E0,-7.896314859E-1,-2.177468538E-1,8.784051895E0
2.955591204E0,-7.728816867E-1,-2.416750938E-1,8.879764557E0
2.958002141E0,-7.657032609E-1,-2.608176768E-1,8.977870941E0
2.960413131E0,-7.537391186E-1,-3.014956415E-1,9.095118523E0
2.962824121E0,-7.369893789E-1,-3.397808075E-1,9.198010445E0
2.965235058E0,-7.226324677E-1,-3.708875179E-1,9.310472488E0
2.967646048E0,-7.058826685E-1,-3.948157430E-1,9.434899330E0
2.970057037E0,-6.771687865E-1,-4.307080805E-1,9.559326172E0
2.972467975E0,-6.652047038E-1,-4.474578202E-1,9.669396400E0
2.974878964E0,-6.604190469E-1,-4.642075896E-1,9.781859398E0
2.977289954E0,-6.412764788E-1,-5.288137794E-1,9.882357597E0
2.979700891E0,-6.101697683E-1,-5.527420044E-1,1.000439167E1
2.982111881E0,-5.910272002E-1,-5.814558864E-1,1.009292603E1
2.984522871E0,-5.575276613E-1,-6.340979934E-1,1.018385315E1
2.986933808E0,-5.312066078E-1,-6.771687865E-1,1.026042366E1
2.989344798E0,-5.048855543E-1,-7.010970116E-1,1.033220863E1
2.991755787E0,-4.737788737E-1,-7.417750359E-1,1.038963604E1
2.994166725E0,-4.450650215E-1,-7.704889178E-1,1.043988514E1
2.996577714E0,-4.187439680E-1,-7.824530005E-1,1.047577763E1
2.998988704E0,-3.732803464E-1,-8.159525394E-1,1.052363396E1
3.001399641E0,-3.469592929E-1,-8.350951076E-1,1.054995537E1
3.003810631E0,-3.110669553E-1,-8.685946465E-1,1.055713367E1
3.006221621E0,-2.775674164E-1,-8.997012973E-1,1.056909752E1
3.008632558E0,-2.368894368E-1,-9.236295223E-1,1.056191921E1
3.011043548E0,-1.986042857E-1,-9.571290612E-1,1.054516983E1
3.013454537E0,-1.698904037E-1,-9.762716293E-1,1.051406288E1
3.015865475E0,-1.268195957E-1,-9.858429432E-1,1.049013424E1
3.018276464E0,-9.571290761E-2,-1.016949654E0,1.046859932E1
3.020687454E0,-7.417750359E-2,-1.028913736E0,1.041595650E1
3.023098391E0,-3.828516230E-2,-1.067198873E0,1.037288570E1
3.025509381E0,-7.178467698E-3,-1.069591761E0,1.033220863E1
3.027920371E0,9.571290575E-3,-1.110269666E0,1.027717304E1
3.030331308E0,2.153540403E-2,-1.129412293E0,1.022692394E1
3.032742298E0,4.546362907E-2,-1.148554921E0,1.018863869E1
3.035153287E0,7.178468257E-2,-1.170090318E0,1.015274620E1
3.037564225E0,8.374879509E-2,-1.170090318E0,1.010488987E1
3.039975214E0,1.052841991E-1,-1.186840057E0,1.007856941E1
3.042386204E0,1.244267747E-1,-1.184447169E0,1.005464077E1
3.044797141E0,1.435693651E-1,-1.208375454E0,1.004506969E1
3.047208131E0,1.411765367E-1,-1.220339537E0,1.004267693E1
3.049619121E0,1.627119333E-1,-1.246660590E0,1.005224800E1
3.052030058E0,1.818545163E-1,-1.258624673E0,1.007378292E1
3.054441048E0,1.651047617E-1,-1.268195987E0,1.008335495E1
3.056852037E0,1.698904037E-1,-1.316052437E0,1.010967541E1
3.059262975E0,1.890329868E-1,-1.313659668E0,1.014078236E1
3.061673964E0,1.794617027E-1,-1.354337573E0,1.019103146E1
3.064084954E0,1.794617027E-1,-1.373480201E0,1.025803089E1
3.066495891E0,1.890329868E-1,-1.390229940E0,1.032502937E1
3.068906881E0,1.890329868E-1,-1.406979680E0,1.040159988E1
3.071317871E0,1.818545163E-1,-1.426122308E0,1.049013424E1
3.073728808E0,1.890329868E-1,-1.459621787E0,1.058824062E1
3.076139798E0,1.794617027E-1,-1.481157184E0,1.068634605E1
3.078550787E0,1.627119333E-1,-1.495514154E0,1.078205872E1
3.080961725E0,1.579262912E-1,-1.531406522E0,1.089452171E1
3.083372714E0,1.292124242E-1,-1.555334687E0,1.100698376E1
3.085783704E0,1.268195957E-1,-1.579262972E0,1.111226845E1
3.088194641E0,9.810572863E-2,-1.603191137E0,1.121755219E1
3.090605631E0,8.374879509E-2,-1.629512191E0,1.132762241E1
3.093016621E0,6.221338734E-2,-1.643869162E0,1.142812061E1
3.095427558E0,3.110669367E-2,-1.663011789E0,1.152622700E1
3.097838548E0,7.178467698E-3,-1.682154298E0,1.162193966E1
3.100249537E0,-3.110669367E-2,-1.701296926E0,1.172722340E1
3.102660475E0,-5.742774159E-2,-1.720439434E0,1.181815147E1
3.105071464E0,-8.853443712E-2,-1.734796405E0,1.190429306E1
3.107482454E0,-1.196411327E-1,-1.756331801E0,1.198325539E1
3.109893391E0,-1.603191197E-1,-1.775474429E0,1.205504036E1
3.112304381E0,-2.081755698E-1,-1.773081541E0,1.212443256E1
3.114715371E0,-2.321037948E-1,-1.782652855E0,1.219861031E1
3.117126308E0,-2.656033039E-1,-1.794616938E0,1.223450184E1
3.119537298E0,-3.110669553E-1,-1.782652855E0,1.227996540E1
3.121948287E0,-3.589234054E-1,-1.775474429E0,1.231825066E1
3.124359225E0,-4.067798555E-1,-1.789831281E0,1.234935760E1
3.126770214E0,-4.283152521E-1,-1.777867198E0,1.237567902E1
3.129181204E0,-4.546363056E-1,-1.782652855E0,1.240678501E1
3.131592193E0,-4.881358147E-1,-1.777867198E0,1.242353535E1
3.134003131E0,-5.455635786E-1,-1.761117458E0,1.243549919E1
3.136414121E0,-5.862415433E-1,-1.758724689E0,1.245703506E1
3.138825110E0,-6.245267391E-1,-1.761117458E0,1.244507027E1
3.141236048E0,-6.628118753E-1,-1.749153376E0,1.244746304E1
3.143647037E0,-6.987041831E-1,-1.727617979E0,1.244985580E1
3.146058027E0,-7.322037220E-1,-1.722832322E0,1.244746304E1
3.148468964E0,-7.680960894E-1,-1.708475351E0,1.244028473E1
3.150879954E0,-8.063812256E-1,-1.701296926E0,1.243071365E1
3.153290891E0,-8.374879360E-1,-1.713261008E0,1.242592812E1
3.155701881E0,-8.494520187E-1,-1.703689694E0,1.241396427E1
3.158112871E0,-8.781659007E-1,-1.682154298E0,1.239721394E1
3.160523860E0,-9.140582681E-1,-1.674975872E0,1.238285732E1
3.162934798E0,-9.427721500E-1,-1.646261930E0,1.239003563E1
3.165345787E0,-9.571290612E-1,-1.627119422E0,1.235892868E1
3.167756725E0,-9.882357717E-1,-1.615155339E0,1.236371422E1
3.170167714E0,-1.004985452E0,-1.598405480E0,1.236132145E1
3.172578704E0,-1.026520967E0,-1.574477315E0,1.234935760E1
3.174989693E0,-1.040877819E0,-1.552941918E0,1.233260822E1
3.177400631E0,-1.062413216E0,-1.507478237E0,1.233021545E1
3.179811621E0,-1.074377418E0,-1.490728498E0,1.233260822E1
3.182222610E0,-1.062413216E0,-1.464407444E0,1.233500099E1
3.184633548E0,-1.076770186E0,-1.440479279E0,1.232782269E1
3.187044537E0,-1.105484009E0,-1.414158225E0,1.231825066E1
3.189455527E0,-1.105484009E0,-1.373480201E0,1.232542896E1
3.191866464E0,-1.107876897E0,-1.339980721E0,1.233739376E1
3.194277454E0,-1.088734269E0,-1.308874011E0,1.233260822E1
3.196688443E0,-1.112662554E0,-1.284945726E0,1.232782269E1
3.199099381E0,-1.081555843E0,-1.241874933E0,1.234217930E1
3.201510371E0,-1.076770186E0,-1.213161111E0,1.233021545E1
3.203921360E0,-1.062413216E0,-1.174875975E0,1.231585789E1
3.206332298E0,-1.062413216E0,-1.122233868E0,1.231107235E1
3.208743287E0,-1.026520967E0,-1.076770186E0,1.229432297E1
3.211154277E0,-1.009771109E0,-1.048056364E0,1.229432297E1
3.213565214E0,-9.858429432E-1,-1.002592683E0,1.227517986E1
3.215976204E0,-9.523434043E-1,-9.499505758E-1,1.226560879E1
3.218387193E0,-9.284151793E-1,-8.781659007E-1,1.225125217E1
3.220798131E0,-9.020941257E-1,-8.446664214E-1,1.223210907E1
3.223209121E0,-8.662018180E-1,-7.920243144E-1,1.220100307E1
3.225620110E0,-8.255237937E-1,-7.202396393E-1,1.217228889E1
3.228031048E0,-7.848458290E-1,-6.460621357E-1,1.215075302E1
3.230442037E0,-7.298108935E-1,-5.934200287E-1,1.211725426E1
3.232853027E0,-6.604190469E-1,-5.359922647E-1,1.208854008E1
3.235263964E0,-6.269195080E-1,-4.761717021E-1,1.204307652E1
3.237674954E0,-5.910272002E-1,-4.043870270E-1,1.198804188E1
3.240085943E0,-5.312066078E-1,-3.541377485E-1,1.194736385E1
3.242496881E0,-5.024927258E-1,-2.919243574E-1,1.189711380E1
3.244907871E0,-4.498506486E-1,-2.153540403E-1,1.183011532E1
3.247318860E0,-3.924229145E-1,-1.579262912E-1,1.175354481E1
3.249729798E0,-3.421736360E-1,-9.571290761E-2,1.169611740E1
3.252140787E0,-2.943171859E-1,-2.632104978E-2,1.163868904E1
3.254551777E0,-2.440679073E-1,1.914258115E-2,1.156211948E1
3.256962714E0,-1.866401732E-1,8.135596663E-2,1.148076344E1
3.259373704E0,-1.339980662E-1,1.507478207E-1,1.140658569E1
3.261784693E0,-9.092725813E-2,2.129612118E-1,1.132762241E1
3.264195631E0,-5.982056633E-2,2.703889608E-1,1.123190975E1
3.266606621E0,-1.196411345E-2,3.158525825E-1,1.115055370E1
3.269017610E0,2.632104978E-2,3.780659735E-1,1.106441212E1
3.271428548E0,5.503492057E-2,4.283152521E-1,1.097587776E1
3.273839537E0,8.853443712E-2,4.929214716E-1,1.089691448E1
3.276250527E0,1.076770201E-1,5.551348329E-1,1.082273674E1
3.278661464E0,1.339980662E-1,6.029912829E-1,1.072702408E1
3.281072454E0,1.746760458E-1,6.436693072E-1,1.065045357E1
3.283483443E0,1.842473447E-1,6.867401004E-1,1.056431198E1
3.285894381E0,1.938186288E-1,7.465606928E-1,1.048056316E1
3.288305371E0,2.129612118E-1,7.992027402E-1,1.041117096E1
3.290716360E0,2.081755698E-1,8.327022791E-1,1.036810017E1
3.293127350E0,2.344966233E-1,8.805587292E-1,1.031545830E1
3.295538287E0,2.225325108E-1,8.973084688E-1,1.026281643E1
3.297949277E0,1.986042857E-1,9.403793216E-1,1.021974564E1
3.300360214E0,2.105683982E-1,9.738788009E-1,1.019103146E1
3.302771204E0,1.938186288E-1,1.016949654E0,1.016710377E1
3.305182193E0,1.818545163E-1,1.057627559E0,1.015274620E1
3.307593183E0,1.674975902E-1,1.093519926E0,1.014556789E1
3.310004121E0,1.579262912E-1,1.107876897E0,1.012642574E1
3.312415110E0,1.292124242E-1,1.138983607E0,1.014317513E1
3.314826100E0,1.028913707E-1,1.160519004E0,1.016949654E1
3.317237037E0,6.939185411E-2,1.208375454E0,1.019342422E1
3.319648027E0,4.067798331E-2,1.215553880E0,1.021974564E1
3.322059016E0,1.196411345E-2,1.232303619E0,1.026999474E1
3.324469954E0,-2.871387079E-2,1.270588875E0,1.032502937E1
3.326880943E0,-6.221338734E-2,1.287338614E0,1.039202881E1
3.329291933E0,-8.853443712E-2,1.299302697E0,1.046620655E1
3.331702871E0,-1.411765367E-1,1.323230863E0,1.052363396E1
3.334113860E0,-1.938186288E-1,1.344766378E0,1.058824062E1
3.336524850E0,-2.416750938E-1,1.351944804E0,1.066959572E1
3.338935787E0,-2.703889608E-1,1.366301775E0,1.075334454E1
3.341346777E0,-3.302095234E-1,1.375872970E0,1.082512951E1
3.343757766E0,-3.684946895E-1,1.371087432E0,1.090409279E1
3.346168704E0,-4.283152521E-1,1.366301775E0,1.099023438E1
3.348579693E0,-4.881358147E-1,1.385444283E0,1.105723381E1
3.350990683E0,-5.264210105E-1,1.375872970E0,1.113141060E1
3.353401621E0,-5.742774606E-1,1.361516118E0,1.118883896E1
3.355812610E0,-6.317051649E-1,1.339980721E0,1.125105190E1
3.358223600E0,-6.915257573E-1,1.328016520E0,1.132283688E1
3.360634537E0,-7.082754970E-1,1.308874011E0,1.137308598E1
3.363045527E0,-7.513462901E-1,1.294517040E0,1.142572784E1
3.365456516E0,-7.920243144E-1,1.277767301E0,1.146640587E1
3.367867454E0,-8.422735929E-1,1.239482164E0,1.149272728E1
3.370278443E0,-8.662018180E-1,1.215553880E0,1.153101254E1
3.372689433E0,-8.829515576E-1,1.182054400E0,1.154776192E1
3.375100371E0,-9.188438654E-1,1.141376376E0,1.156211948E1
3.377511360E0,-9.308080077E-1,1.098305583E0,1.156690502E1
3.379922350E0,-9.667003751E-1,1.052842021E0,1.156451225E1
3.382333287E0,-9.786644578E-1,1.021735311E0,1.156929779E1
3.384744277E0,-9.834501147E-1,1.000199914E0,1.155733299E1
3.387155266E0,-1.004985452E0,9.595218897E-1,1.154297638E1
3.389566204E0,-1.004985452E0,9.332008362E-1,1.153579807E1
3.391977193E0,-1.014556766E0,8.853443861E-1,1.150469112E1
3.394388183E0,-1.014556766E0,8.374879360E-1,1.146879864E1
3.396799121E0,-1.002592683E0,8.015955687E-1,1.144726372E1
3.399210110E0,-9.906286001E-1,7.465606928E-1,1.142094231E1
3.401621100E0,-9.882357717E-1,7.130611539E-1,1.139222908E1
3.404032037E0,-9.810572863E-1,6.628118753E-1,1.138744259E1
3.406443027E0,-9.690931439E-1,6.125625968E-1,1.138504982E1
3.408854016E0,-9.499505758E-1,5.551348329E-1,1.136351490E1
3.411264954E0,-9.379864931E-1,5.120640397E-1,1.136590767E1
3.413675943E0,-9.188438654E-1,4.737788737E-1,1.136351490E1
3.416086933E0,-9.116654396E-1,4.331009090E-1,1.136590767E1
3.418497871E0,-8.733802438E-1,3.948157430E-1,1.139462185E1
3.420908860E0,-8.542376757E-1,3.541377485E-1,1.140658569E1
3.423319850E0,-8.255237937E-1,2.991028428E-1,1.142094231E1
3.425730787E0,-8.015955687E-1,2.584248483E-1,1.146640587E1
3.428141777E0,-7.776673436E-1,2.225325108E-1,1.150708389E1
3.430552766E0,-7.417750359E-1,1.794617027E-1,1.155015469E1
3.432963704E0,-7.178468108E-1,1.483550072E-1,1.159561825E1
3.435374693E0,-6.843472719E-1,1.100698411E-1,1.166261768E1
3.437785683E0,-6.460621357E-1,5.982056633E-2,1.170568848E1
3.440196673E0,-6.388836503E-1,2.392822690E-2,1.176311588E1
3.442607610E0,-5.886343718E-1,-1.196411345E-2,1.182054424E1
3.445018600E0,-5.527420044E-1,-7.178468257E-2,1.186840057E1
3.447429589E0,-5.168496966E-1,-9.571290761E-2,1.191625690E1
3.449840527E0,-4.857429862E-1,-1.435693651E-1,1.196411324E1
3.452251516E0,-4.450650215E-1,-1.842473447E-1,1.200718403E1
3.454662506E0,-4.187439680E-1,-2.201396823E-1,1.205025482E1
3.457073443E0,-3.637090325E-1,-2.536391914E-1,1.209571838E1
3.459484433E0,-3.254238665E-1,-3.038884699E-1,1.211486149E1
3.461895371E0,-2.967100143E-1,-3.349951804E-1,1.212203979E1
3.464306360E0,-2.488535494E-1,-3.661018610E-1,1.211964703E1
3.466717350E0,-2.009970993E-1,-4.091726840E-1,1.211725426E1
3.469128339E0,-1.674975902E-1,-4.498506486E-1,1.208854008E1
3.471539277E0,-1.220339537E-1,-4.713860750E-1,1.205982590E1
3.473950266E0,-9.810572863E-2,-4.977070987E-1,1.203111267E1
3.476361256E0,-7.178468257E-2,-5.240281820E-1,1.197368431E1
3.478772193E0,-4.067798331E-2,-5.694918036E-1,1.191147137E1
3.481183183E0,-1.674975827E-2,-5.982056856E-1,1.184207916E1
3.483594121E0,2.392822690E-2,-6.197410822E-1,1.176550865E1
3.486005110E0,6.221338734E-2,-6.293123364E-1,1.167218876E1
3.488416100E0,7.417750359E-2,-6.508477330E-1,1.159322548E1
3.490827089E0,6.939185411E-2,-6.819544435E-1,1.149512005E1
3.493238027E0,7.417750359E-2,-6.939185858E-1,1.139701462E1
3.495649016E0,1.004985496E-1,-7.058826685E-1,1.130130100E1
3.498060006E0,1.004985496E-1,-7.154539824E-1,1.119841003E1
3.500470943E0,1.148554832E-1,-7.250252366E-1,1.108355427E1
3.502881933E0,1.411765367E-1,-7.417750359E-1,1.098544884E1
3.505292923E0,1.387837082E-1,-7.489534616E-1,1.088495064E1
3.507703860E0,1.220339537E-1,-7.609176040E-1,1.079162979E1
3.510114850E0,1.196411327E-1,-7.848458290E-1,1.069591713E1
3.512525839E0,1.244267747E-1,-7.848458290E-1,1.060977554E1
3.514936777E0,1.100698411E-1,-7.633104324E-1,1.052841949E1
3.517347766E0,1.100698411E-1,-7.680960894E-1,1.046620655E1
3.519758756E0,1.268195957E-1,-7.728816867E-1,1.040399265E1
3.522169693E0,1.076770201E-1,-7.728816867E-1,1.034895802E1
3.524580683E0,9.810572863E-2,-7.800601721E-1,1.029392338E1
3.526991673E0,8.614161611E-2,-7.657032609E-1,1.025803089E1
3.529402610E0,5.503492057E-2,-7.704889178E-1,1.023170948E1
3.531813600E0,6.221338734E-2,-7.968099117E-1,1.021735287E1
3.534224589E0,5.982056633E-2,-7.872386575E-1,1.021496010E1
3.536635527E0,3.349951655E-2,-7.704889178E-1,1.021256733E1
3.539046516E0,0.000000000E0,-7.680960894E-1,1.020538902E1
3.541457506E0,-1.196411345E-2,-7.800601721E-1,1.022692394E1
3.543868443E0,-3.349951655E-2,-7.824530005E-1,1.024606609E1
3.546279433E0,-4.785645381E-2,-7.657032609E-1,1.026760197E1
3.548690423E0,-7.417750359E-2,-7.896314859E-1,1.029870892E1
3.551101360E0,-8.853443712E-2,-7.776673436E-1,1.034895802E1
3.553512350E0,-1.387837082E-1,-7.537391186E-1,1.036810017E1
3.555923339E0,-1.579262912E-1,-7.513462901E-1,1.039442158E1
3.558334277E0,-1.794617027E-1,-7.561319470E-1,1.045184898E1
3.560745266E0,-2.057827413E-1,-7.609176040E-1,1.048774147E1
3.563156256E0,-2.488535494E-1,-7.345965505E-1,1.052363396E1
3.565567193E0,-2.871387303E-1,-7.465606928E-1,1.055234814E1
3.567978183E0,-3.062812984E-1,-7.178468108E-1,1.058584690E1
3.570389173E0,-3.469592929E-1,-7.082754970E-1,1.060977554E1
3.572800162E0,-3.661018610E-1,-6.771687865E-1,1.062173939E1
3.575211100E0,-4.019941986E-1,-6.723831892E-1,1.062413216E1
3.577622089E0,-4.067798555E-1,-6.340979934E-1,1.061456108E1
3.580033027E0,-4.354937077E-1,-6.149554253E-1,1.059302616E1
3.582444016E0,-4.737788737E-1,-6.029912829E-1,1.056670475E1
3.584855006E0,-5.048855543E-1,-6.077769399E-1,1.052841949E1
3.587265996E0,-5.288137794E-1,-5.670989752E-1,1.049970531E1
3.589676933E0,-5.670989752E-1,-5.264210105E-1,1.043031406E1
3.592087923E0,-5.766702294E-1,-5.168496966E-1,1.036810017E1
3.594498912E0,-6.053841114E-1,-5.048855543E-1,1.027956581E1
3.596909850E0,-6.125625968E-1,-4.666004181E-1,1.019820976E1
3.599320839E0,-6.317051649E-1,-4.354937077E-1,1.010010433E1
3.601731829E0,-6.628118753E-1,-4.187439680E-1,1.000917721E1
3.604142766E0,-6.628118753E-1,-3.876372576E-1,9.903892517E0
3.606553756E0,-6.771687865E-1,-3.541377485E-1,9.796216011E0
3.608964693E0,-6.795616150E-1,-3.493520916E-1,9.690931320E0
3.611375683E0,-6.987041831E-1,-2.967100143E-1,9.592825890E0
3.613786673E0,-7.154539824E-1,-2.656033039E-1,9.482755661E0
3.616197610E0,-7.010970116E-1,-2.273181528E-1,9.379864693E0
3.618608600E0,-7.154539824E-1,-1.890329868E-1,9.260223389E0
3.621019589E0,-7.178468108E-1,-1.579262912E-1,9.154939651E0
3.623430579E0,-7.178468108E-1,-1.292124242E-1,9.064012527E0
3.625841516E0,-7.250252366E-1,-9.810572863E-2,8.965906143E0
3.628252506E0,-7.226324677E-1,-5.503492057E-2,8.853444099E0
3.630663496E0,-7.250252366E-1,-3.110669367E-2,8.757730484E0
3.633074433E0,-7.082754970E-1,1.674975827E-2,8.685946465E0
3.635485423E0,-7.106683254E-1,5.024927482E-2,8.609375954E0
3.637896412E0,-6.915257573E-1,8.614161611E-2,8.525627136E0
3.640307350E0,-6.915257573E-1,1.100698411E-1,8.458627701E0
3.642718339E0,-6.891329288E-1,1.268195957E-1,8.398807526E0
3.645129329E0,-6.915257573E-1,1.722832322E-1,8.348558426E0
3.647540266E0,-6.819544435E-1,2.081755698E-1,8.291130066E0
3.649951256E0,-6.771687865E-1,2.512463629E-1,8.236095428E0
3.652362246E0,-6.652047038E-1,2.895315289E-1,8.204988480E0
3.654773183E0,-6.388836503E-1,3.302095234E-1,8.164310455E0
3.657184173E0,-6.317051649E-1,3.565305769E-1,8.130811691E0
3.659595162E0,-6.149554253E-1,3.972085714E-1,8.099704742E0
3.662006100E0,-5.910272002E-1,4.522434771E-1,8.078168869E0
3.664417089E0,-5.814558864E-1,4.929214716E-1,8.085348129E0
3.666828079E0,-5.790630579E-1,5.431707501E-1,8.070990562E0
3.669239016E0,-5.766702294E-1,6.005984545E-1,8.059026718E0
3.671650006E0,-5.551348329E-1,6.269195080E-1,8.054241180E0
3.674060996E0,-5.455635786E-1,6.843472719E-1,8.047062874E0
3.676471933E0,-5.144568682E-1,7.441678643E-1,8.027919769E0
3.678882923E0,-4.953143001E-1,7.776673436E-1,8.015955925E0
3.681293912E0,-4.666004181E-1,8.135597110E-1,8.006384850E0
3.683704850E0,-4.450650215E-1,8.733802438E-1,7.975277901E0
3.686115839E0,-4.115654826E-1,9.427721500E-1,7.948956966E0
3.688526829E0,-4.067798555E-1,9.619147182E-1,7.920242786E0
3.690937766E0,-3.732803464E-1,1.024128079E0,7.884350777E0
3.693348756E0,-3.373879790E-1,1.052842021E0,7.853243828E0
3.695759746E0,-3.158525825E-1,1.091127157E0,7.810173035E0
3.698170683E0,-2.895315289E-1,1.129412293E0,7.776673794E0
3.700581673E0,-2.560320199E-1,1.172483087E0,7.733603001E0
3.702992662E0,-2.201396823E-1,1.210768223E0,7.685746193E0
3.705403600E0,-1.890329868E-1,1.253839016E0,7.618747234E0
3.707814589E0,-1.794617027E-1,1.282552958E0,7.551748276E0
3.710225579E0,-1.531406492E-1,1.328016520E0,7.494320393E0
3.712636516E0,-1.316052526E-1,1.337587833E0,7.420143127E0
3.715047506E0,-1.124626622E-1,1.363908887E0,7.336394310E0
3.717458496E0,-8.374879509E-2,1.404586911E0,7.278966427E0
3.719869485E0,-4.785645381E-2,1.426122308E0,7.202396393E0
3.722280423E0,-2.871387079E-2,1.450050473E0,7.123433113E0
3.724691412E0,-1.674975827E-2,1.471585870E0,7.039684296E0
3.727102402E0,9.571290575E-3,1.481157184E0,6.960721016E0
3.729513339E0,1.914258115E-2,1.493121386E0,6.903293133E0
3.731924329E0,3.828516230E-2,1.509871125E0,6.845865726E0
3.734335318E0,6.221338734E-2,1.533799291E0,6.766902447E0
3.736746256E0,7.657032460E-2,1.548156261E0,6.707081795E0
3.739157246E0,9.332008660E-2,1.560120344E0,6.666403770E0
3.741568235E0,1.100698411E-1,1.584048629E0,6.606583118E0
3.743979173E0,1.196411327E-1,1.576870084E0,6.565905571E0
3.746390162E0,1.196411327E-1,1.593619823E0,6.515655994E0
3.748801152E0,1.076770201E-1,1.610369682E0,6.474977970E0
3.751212089E0,1.076770201E-1,1.619940877E0,6.455835342E0
3.753623079E0,1.196411327E-1,1.634297848E0,6.436692715E0
3.756034068E0,1.220339537E-1,1.643869162E0,6.427121639E0
3.758445006E0,1.244267747E-1,1.653440475E0,6.427121639E0
3.760855996E0,1.244267747E-1,1.655833244E0,6.415157318E0
3.763266985E0,1.220339537E-1,1.653440475E0,6.419943333E0
3.765677923E0,1.220339537E-1,1.663011789E0,6.424728870E0
3.768088912E0,1.196411327E-1,1.682154298E0,6.451049805E0
3.770499902E0,1.076770201E-1,1.689332843E0,6.474977970E0
3.772910839E0,1.100698411E-1,1.708475351E0,6.522834301E0
3.775321829E0,1.076770201E-1,1.715653777E0,6.563512325E0
3.777732818E0,1.004985496E-1,1.749153376E0,6.611369133E0
3.780143756E0,8.135596663E-2,1.741974831E0,6.659225464E0
3.782554746E0,6.699903309E-2,1.730010748E0,6.695117950E0
3.784965735E0,6.221338734E-2,1.713261008E0,6.769295216E0
3.787376673E0,4.067798331E-2,1.720439434E0,6.831508636E0
3.789787662E0,4.785645287E-3,1.734796405E0,6.888936520E0
3.792198652E0,-9.571290575E-3,1.744367719E0,6.955935478E0
3.794609589E0,-1.914258115E-2,1.746760488E0,7.010970116E0
3.797020579E0,-4.785645381E-2,1.756331801E0,7.089933395E0
3.799431568E0,-7.178468257E-2,1.730010748E0,7.159325123E0
3.801842506E0,-1.028913707E-1,1.708475351E0,7.231110096E0
3.804253496E0,-1.244267747E-1,1.696511269E0,7.295716286E0
3.806664485E0,-1.483550072E-1,1.686939955E0,7.357929707E0
3.809075423E0,-1.603191197E-1,1.665404558E0,7.429714203E0
3.811486412E0,-2.057827413E-1,1.631905079E0,7.515855789E0
3.813897402E0,-2.440679073E-1,1.598405480E0,7.563712597E0
3.816308391E0,-2.823530734E-1,1.576870084E0,7.625925541E0
3.818719329E0,-3.110669553E-1,1.567298889E0,7.704888821E0
3.821130318E0,-3.397808075E-1,1.526620865E0,7.774280548E0
3.823541308E0,-3.708875179E-1,1.495514154E0,7.834101200E0
3.825952246E0,-3.948157430E-1,1.462014675E0,7.903493404E0
3.828363235E0,-4.235295951E-1,1.426122308E0,7.963313580E0
3.830774225E0,-4.474578202E-1,1.378265858E0,8.018348694E0
3.833185162E0,-4.689932466E-1,1.339980721E0,8.075776100E0
3.835596152E0,-4.977070987E-1,1.301695466E0,8.130811691E0
3.838007141E0,-5.240281820E-1,1.253839016E0,8.197810173E0
3.840418079E0,-5.599204898E-1,1.201196909E0,8.252845764E0
3.842829068E0,-5.790630579E-1,1.158126116E0,8.312665939E0
3.845240006E0,-5.934200287E-1,1.112662554E0,8.358129501E0
3.847650996E0,-6.293123364E-1,1.069591761E0,8.422736168E0
3.850061985E0,-6.508477330E-1,1.016949654E0,8.477770805E0
3.852472975E0,-6.580262184E-1,9.595218897E-1,8.554341316E0
3.854883912E0,-6.939185858E-1,9.092726111E-1,8.614161491E0
3.857294902E0,-7.130611539E-1,8.662018180E-1,8.700303078E0
3.859705891E0,-7.154539824E-1,8.087740541E-1,8.781659126E0
3.862116829E0,-7.250252366E-1,7.537391186E-1,8.846264839E0
3.864527818E0,-7.609176040E-1,6.963114142E-1,8.925228119E0
3.866938808E0,-7.585247755E-1,6.412764788E-1,9.008976936E0
3.869349746E0,-7.609176040E-1,5.934200287E-1,9.080761909E0
3.871760735E0,-7.776673436E-1,5.455635786E-1,9.162117958E0
3.874171725E0,-7.800601721E-1,4.857429862E-1,9.248259544E0
3.876582662E0,-7.824530005E-1,4.354937077E-1,9.353543282E0
3.878993652E0,-8.039883971E-1,3.852444589E-1,9.466006279E0
3.881404641E0,-7.968099117E-1,3.493520916E-1,9.573683739E0
3.883815579E0,-8.015955687E-1,2.871387303E-1,9.681360245E0
3.886226568E0,-7.992027402E-1,2.177468538E-1,9.769894600E0
3.888637558E0,-7.728816867E-1,1.507478207E-1,9.882357597E0
3.891048496E0,-7.896314859E-1,1.124626622E-1,9.980463028E0
3.893459485E0,-7.800601721E-1,6.460621208E-2,1.008574772E1
3.895870475E0,-7.704889178E-1,1.674975827E-2,1.020538902E1
3.898281412E0,-7.657032609E-1,-3.349951655E-2,1.032024384E1
3.900692402E0,-7.441678643E-1,-9.092725813E-2,1.044467068E1
3.903103391E0,-7.441678643E-1,-1.531406492E-1,1.055234814E1
3.905514329E0,-7.178468108E-1,-2.177468538E-1,1.066002464E1
3.907925318E0,-6.987041831E-1,-2.584248483E-1,1.077488041E1
3.910336308E0,-6.771687865E-1,-3.158525825E-1,1.089212894E1
3.912747246E0,-6.532405615E-1,-3.661018610E-1,1.100937653E1
3.915158235E0,-6.317051649E-1,-4.211367965E-1,1.112183952E1
3.917569225E0,-6.221339107E-1,-4.761717021E-1,1.122233772E1
3.919980162E0,-6.029912829E-1,-5.288137794E-1,1.132283688E1
3.922391152E0,-5.670989752E-1,-5.766702294E-1,1.142572784E1
3.924802141E0,-5.455635786E-1,-6.173482537E-1,1.151186943E1
3.927213079E0,-5.048855543E-1,-6.699903607E-1,1.161236858E1
3.929624068E0,-4.761717021E-1,-7.154539824E-1,1.168893814E1
3.932035058E0,-4.522434771E-1,-7.657032609E-1,1.177986622E1
3.934445996E0,-4.163511395E-1,-8.327022791E-1,1.185882950E1
3.936856985E0,-3.852444589E-1,-8.757730722E-1,1.194257736E1
3.939267975E0,-3.589234054E-1,-9.236295223E-1,1.200239849E1
3.941678912E0,-3.302095234E-1,-9.762716293E-1,1.207179070E1
3.944089902E0,-2.967100143E-1,-1.019342422E0,1.213161087E1
3.946500891E0,-2.656033039E-1,-1.043270707E0,1.218903828E1
3.948911881E0,-2.560320199E-1,-1.081555843E0,1.222732353E1
3.951322818E0,-2.249253243E-1,-1.124626637E0,1.226560879E1
3.953733808E0,-1.938186288E-1,-1.150947690E0,1.232542896E1
3.956144798E0,-1.746760458E-1,-1.194018483E0,1.234696484E1
3.958555735E0,-1.579262912E-1,-1.227517962E0,1.238525009E1
3.960966725E0,-1.292124242E-1,-1.261017561E0,1.241874981E1
3.963377662E0,-1.052841991E-1,-1.292124271E0,1.244985580E1
3.965788652E0,-8.135596663E-2,-1.325623751E0,1.248096275E1
3.968199641E0,-5.982056633E-2,-1.354337573E0,1.248814106E1
3.970610631E0,-4.785645381E-2,-1.387837172E0,1.251685524E1
3.973021568E0,-1.914258115E-2,-1.404586911E0,1.253121185E1
3.975432558E0,-2.392822644E-3,-1.428515077E0,1.255274773E1
3.977843548E0,9.571290575E-3,-1.421336651E0,1.257906818E1
3.980254485E0,1.914258115E-2,-1.452443361E0,1.260060406E1
3.982665475E0,2.392822690E-2,-1.481157184E0,1.261256790E1
3.985076464E0,3.349951655E-2,-1.476371527E0,1.264128208E1
3.987487402E0,1.914258115E-2,-1.507478237E0,1.265803146E1
3.989898391E0,1.435693540E-2,-1.517049551E0,1.267478180E1
3.992309381E0,1.196411345E-2,-1.531406522E0,1.268674564E1
3.994720318E0,4.785645287E-3,-1.536192179E0,1.271067429E1
3.997131308E0,-2.392822644E-3,-1.540977836E0,1.274656582E1
3.999542298E0,-1.196411345E-2,-1.548156261E0,1.277528000E1
4.001953235E0,-1.196411345E-2,-1.536192179E0,1.282074356E1
4.004364225E0,-7.178467698E-3,-1.536192179E0,1.286859989E1
4.006775214E0,-1.914258115E-2,-1.521835208E0,1.291167068E1
4.009186152E0,-4.785645381E-2,-1.540977836E0,1.296431351E1
4.011597141E0,-6.939185411E-2,-1.529013634E0,1.299781227E1
4.014008131E0,-7.896314561E-2,-1.526620865E0,1.303370476E1
4.016419068E0,-1.076770201E-1,-1.509871125E0,1.309113312E1
4.018830058E0,-1.316052526E-1,-1.493121386E0,1.312941742E1
4.021241048E0,-1.483550072E-1,-1.507478237E0,1.319880962E1
4.023652037E0,-1.770688742E-1,-1.495514154E0,1.325145149E1
4.026062975E0,-2.105683982E-1,-1.483550072E0,1.329930782E1
4.028473964E0,-2.297109663E-1,-1.466800332E0,1.336152172E1
4.030884902E0,-2.608176768E-1,-1.442872047E0,1.340937805E1
4.033295891E0,-2.919243574E-1,-1.447657704E0,1.346441269E1
4.035706881E0,-3.158525825E-1,-1.414158225E0,1.351466274E1
4.038117818E0,-3.397808075E-1,-1.414158225E0,1.355533981E1
4.040528808E0,-3.684946895E-1,-1.385444283E0,1.361037540E1
4.042939798E0,-4.163511395E-1,-1.356730461E0,1.364626789E1
4.045350787E0,-4.450650215E-1,-1.335195065E0,1.369890976E1
4.047761725E0,-4.785645306E-1,-1.316052437E0,1.373958778E1
4.050172714E0,-5.216353536E-1,-1.280160069E0,1.377069473E1
4.052583704E0,-5.503492355E-1,-1.261017561E0,1.380180073E1
4.054994641E0,-5.910272002E-1,-1.222732425E0,1.382094383E1
4.057405631E0,-6.221339107E-1,-1.186840057E0,1.384965706E1
4.059816621E0,-6.556333899E-1,-1.153340459E0,1.387358570E1
4.062227558E0,-6.723831892E-1,-1.119840980E0,1.388794231E1
4.064638548E0,-7.082754970E-1,-1.081555843E0,1.389033508E1
4.067049537E0,-7.465606928E-1,-1.024128079E0,1.387597847E1
4.069460475E0,-7.752745152E-1,-1.000199914E0,1.386401463E1
4.071871464E0,-8.135597110E-1,-9.571290612E-1,1.384965706E1
4.074282454E0,-8.207381964E-1,-9.044869542E-1,1.381615829E1
4.076693391E0,-8.422735929E-1,-8.638089895E-1,1.378983688E1
4.079104381E0,-8.518448472E-1,-8.350951076E-1,1.375633717E1
4.081515371E0,-8.901300430E-1,-7.680960894E-1,1.371326637E1
4.083926308E0,-8.973084688E-1,-7.202396393E-1,1.366541004E1
4.086337298E0,-9.164510965E-1,-6.747759581E-1,1.361276817E1
4.088748287E0,-9.379864931E-1,-6.149554253E-1,1.356012630E1
4.091159225E0,-9.379864931E-1,-5.694918036E-1,1.349791241E1
4.093570214E0,-9.379864931E-1,-5.383850932E-1,1.341894913E1
4.095981204E0,-9.451649189E-1,-4.857429862E-1,1.335434341E1
4.098392141E0,-9.379864931E-1,-4.426721931E-1,1.328495121E1
4.100803131E0,-9.403793216E-1,-3.780659735E-1,1.321555901E1
4.103214121E0,-9.164510965E-1,-3.110669553E-1,1.313659668E1
4.105625058E0,-9.308080077E-1,-2.584248483E-1,1.305284786E1
4.108036048E0,-9.020941257E-1,-2.129612118E-1,1.298106289E1
4.110447037E0,-8.925228715E-1,-1.651047617E-1,1.291167068E1
4.112858027E0,-8.925228715E-1,-1.028913707E-1,1.283510113E1
4.115268964E0,-8.949156404E-1,-7.417750359E-2,1.274178028E1
4.117679954E0,-8.781659007E-1,-2.632104978E-2,1.267238903E1
4.120090891E0,-8.470591903E-1,4.067798331E-2,1.258385468E1
4.122501881E0,-8.255237937E-1,8.853443712E-2,1.252881908E1
4.124912871E0,-8.063812256E-1,1.459621787E-1,1.245464230E1
4.127323860E0,-8.015955687E-1,1.890329868E-1,1.238046455E1
4.129734798E0,-7.920243144E-1,2.321037948E-1,1.231346512E1
4.132145787E0,-7.441678643E-1,2.799602449E-1,1.225603771E1
4.134556777E0,-7.154539824E-1,3.110669553E-1,1.218185997E1
4.136967714E0,-6.843472719E-1,3.708875179E-1,1.212203979E1
4.139378704E0,-6.580262184E-1,4.187439680E-1,1.206939697E1
4.141789693E0,-6.173482537E-1,4.689932466E-1,1.200957680E1
4.144200631E0,-5.862415433E-1,5.264210105E-1,1.194975662E1
4.146611621E0,-5.599204898E-1,5.742774606E-1,1.189232826E1
4.149022610E0,-5.312066078E-1,6.173482537E-1,1.182054424E1
4.151433548E0,-5.024927258E-1,6.652047038E-1,1.174636650E1
4.153844537E0,-4.546363056E-1,7.130611539E-1,1.168175983E1
4.156255527E0,-4.259224236E-1,7.513462901E-1,1.162433243E1
4.158666464E0,-3.900300860E-1,7.848458290E-1,1.155254745E1
4.161077454E0,-3.517449200E-1,8.183453679E-1,1.147119141E1
4.163488443E0,-3.182454109E-1,8.470591903E-1,1.140180016E1
4.165899381E0,-3.038884699E-1,8.829515576E-1,1.132522964E1
4.168310371E0,-2.536391914E-1,9.164510965E-1,1.124148083E1
4.170721360E0,-2.201396823E-1,9.523434043E-1,1.115533924E1
4.173132298E0,-1.890329868E-1,9.810572863E-1,1.106919765E1
4.175543287E0,-1.651047617E-1,1.004985452E0,1.098544884E1
4.177954277E0,-1.459621787E-1,1.043270707E0,1.090887833E1
4.180365214E0,-1.196411327E-1,1.062413216E0,1.081077290E1
4.182776204E0,-8.614161611E-2,1.052842021E0,1.072223854E1
4.185187193E0,-6.939185411E-2,1.069591761E0,1.062173939E1
4.187598131E0,-5.024927482E-2,1.100698471E0,1.052602673E1
4.190009121E0,-3.349951655E-2,1.098305583E0,1.043270683E1
4.192420110E0,-7.178467698E-3,1.105484009E0,1.032742214E1
4.194831048E0,1.914258115E-2,1.112662554E0,1.023170948E1
4.197242037E0,7.178467698E-3,1.127019525E0,1.013838959E1
4.199653027E0,2.153540403E-2,1.112662554E0,1.005224800E1
4.202063964E0,3.828516230E-2,1.100698471E0,9.975677490E0
4.204474954E0,3.349951655E-2,1.103091240E0,9.901499748E0
4.206885943E0,4.546362907E-2,1.110269666E0,9.827322960E0
4.209296881E0,4.067798331E-2,1.088734269E0,9.750752449E0
4.211707871E0,3.349951655E-2,1.071984529E0,9.678967476E0
4.214118860E0,1.674975827E-2,1.067198873E0,9.631111145E0
4.216529798E0,1.674975827E-2,1.076770186E0,9.573683739E0
4.218940787E0,1.435693540E-2,1.062413216E0,9.525827408E0
4.221351777E0,-1.435693540E-2,1.026520967E0,9.470791817E0
4.223762766E0,-7.178467698E-3,1.007378340E0,9.430113792E0
4.226173704E0,-1.674975827E-2,9.882357717E-1,9.403793335E0
4.228584693E0,-2.632104978E-2,9.810572863E-1,9.394221306E0
4.230995683E0,-3.589234129E-2,9.714859724E-1,9.363115311E0
4.233406621E0,-5.982056633E-2,9.379864931E-1,9.365508080E0
4.235817610E0,-7.896314561E-2,9.164510965E-1,9.355937004E0
4.238228600E0,-1.052841991E-1,8.949156404E-1,9.367900848E0
4.240639537E0,-1.220339537E-1,8.757730722E-1,9.377471924E0
4.243050527E0,-1.579262912E-1,8.303094506E-1,9.399007797E0
4.245461516E0,-1.842473447E-1,7.920243144E-1,9.434899330E0
4.247872454E0,-2.153540403E-1,7.920243144E-1,9.458827972E0
4.250283443E0,-2.416750938E-1,7.680960894E-1,9.497113228E0
4.252694433E0,-2.679961324E-1,7.322037220E-1,9.542576790E0
4.255105371E0,-2.823530734E-1,7.010970116E-1,9.580862045E0
4.257516360E0,-3.158525825E-1,6.699903607E-1,9.614361763E0
4.259927350E0,-3.517449200E-1,6.269195080E-1,9.650253296E0
4.262338287E0,-3.732803464E-1,6.029912829E-1,9.712467194E0
4.264749277E0,-3.900300860E-1,5.670989752E-1,9.750752449E0
4.267160266E0,-4.283152521E-1,5.240281820E-1,9.793823242E0
4.269571204E0,-4.546363056E-1,4.761717021E-1,9.832108498E0
4.271982193E0,-4.833501875E-1,4.259224236E-1,9.875179291E0
4.274393183E0,-5.240281820E-1,3.948157430E-1,9.930213928E0
4.276804121E0,-5.455635786E-1,3.708875179E-1,9.975677490E0
4.279215110E0,-5.575276613E-1,3.230310678E-1,1.000199890E1
4.281626100E0,-5.647061467E-1,2.727817893E-1,1.002831936E1
4.284037037E0,-6.077769399E-1,2.321037948E-1,1.006899738E1
4.286448027E0,-6.317051649E-1,1.938186288E-1,1.009292603E1
4.288859016E0,-6.508477330E-1,1.459621787E-1,1.011685371E1
4.291269954E0,-6.723831892E-1,9.092725813E-2,1.012403297E1
4.293680943E0,-6.819544435E-1,5.264209956E-2,1.012642574E1
4.296091933E0,-6.915257573E-1,2.392822644E-3,1.014317513E1
4.298502923E0,-6.915257573E-1,-4.785645381E-2,1.014556789E1
4.300913860E0,-7.058826685E-1,-9.810572863E-2,1.015992451E1
4.303324850E0,-7.274180651E-1,-1.435693651E-1,1.016471100E1
4.305735787E0,-7.393822074E-1,-1.794617027E-1,1.015513897E1
4.308146777E0,-7.417750359E-1,-2.153540403E-1,1.014078236E1
4.310557766E0,-7.369893789E-1,-2.632105052E-1,1.012881851E1
4.312968756E0,-7.441678643E-1,-3.182454109E-1,1.011446095E1
4.315379693E0,-7.393822074E-1,-3.684946895E-1,1.010010433E1
4.317790683E0,-7.417750359E-1,-3.996013701E-1,1.006660461E1
4.320201673E0,-7.465606928E-1,-4.307080805E-1,1.004267693E1
4.322612610E0,-7.345965505E-1,-4.857429862E-1,1.003789139E1
4.325023600E0,-7.154539824E-1,-5.240281820E-1,1.003310490E1
4.327434589E0,-7.106683254E-1,-5.599204898E-1,1.001396275E1
4.329845527E0,-7.106683254E-1,-6.053841114E-1,1.000678444E1
4.332256516E0,-6.963114142E-1,-6.388836503E-1,9.997213364E0
4.334667506E0,-6.915257573E-1,-6.795616150E-1,1.000678444E1
4.337078443E0,-6.699903607E-1,-7.178468108E-1,1.001396275E1
4.339489433E0,-6.675975323E-1,-7.465606928E-1,9.997213364E0
4.341900423E0,-6.508477330E-1,-7.944171429E-1,1.001874828E1
4.344311360E0,-6.412764788E-1,-8.303094506E-1,1.001874828E1
4.346722350E0,-6.245267391E-1,-8.590233326E-1,1.002831936E1
4.349133339E0,-6.005984545E-1,-8.901300430E-1,1.004746246E1
4.351544277E0,-5.910272002E-1,-9.164510965E-1,1.005942631E1
4.353955266E0,-5.766702294E-1,-9.595218897E-1,1.007856941E1
4.356366256E0,-5.718846321E-1,-9.882357717E-1,1.009771156E1
4.358777193E0,-5.383850932E-1,-1.014556766E0,1.011924744E1
4.361188183E0,-5.312066078E-1,-1.067198873E0,1.015035343E1
4.363599173E0,-5.144568682E-1,-1.086341500E0,1.018624592E1
4.366010110E0,-4.953143001E-1,-1.115055323E0,1.020538902E1
4.368421100E0,-4.713860750E-1,-1.131805062E0,1.025085258E1
4.370832089E0,-4.570291340E-1,-1.177268744E0,1.028435135E1
4.373243027E0,-4.331009090E-1,-1.201196909E0,1.031785107E1
4.375654016E0,-4.115654826E-1,-1.222732425E0,1.035135078E1
4.378065006E0,-3.996013701E-1,-1.261017561E0,1.038245773E1
4.380475943E0,-3.948157430E-1,-1.292124271E0,1.041117096E1
4.382886933E0,-3.493520916E-1,-1.301695466E0,1.043509960E1
4.385297923E0,-3.397808075E-1,-1.332802176E0,1.046142101E1
4.387708912E0,-3.182454109E-1,-1.354337573E0,1.046620655E1
4.390119850E0,-3.038884699E-1,-1.368694544E0,1.048774147E1
4.392530839E0,-2.679961324E-1,-1.397408366E0,1.050449181E1
4.394941829E0,-2.584248483E-1,-1.416550994E0,1.050209904E1
4.397352766E0,-2.368894368E-1,-1.438086390E0,1.050927734E1
4.399763756E0,-2.177468538E-1,-1.457229018E0,1.049252701E1
4.402174746E0,-1.914258152E-1,-1.464407444E0,1.048056316E1
4.404585683E0,-1.770688742E-1,-1.478764415E0,1.045663452E1
4.406996673E0,-1.722832322E-1,-1.490728498E0,1.045184898E1
4.409407662E0,-1.579262912E-1,-1.497906923E0,1.043031406E1
4.411818600E0,-1.363908947E-1,-1.502692580E0,1.040877819E1
4.414229589E0,-1.220339537E-1,-1.536192179E0,1.037288570E1
4.416640579E0,-1.196411327E-1,-1.555334687E0,1.034417248E1
4.419051516E0,-9.810572863E-2,-1.562513232E0,1.030827999E1
4.421462506E0,-7.657032460E-2,-1.543370605E0,1.026999474E1
4.423873496E0,-7.417750359E-2,-1.531406522E0,1.022692394E1
4.426284433E0,-7.657032460E-2,-1.545763373E0,1.017188931E1
4.428695423E0,-5.742774159E-2,-1.564906001E0,1.012164021E1
4.431106412E0,-3.828516230E-2,-1.572084427E0,1.007856941E1
4.433517350E0,-2.871387079E-2,-1.564906001E0,1.003789139E1
4.435928339E0,-2.392822690E-2,-1.569691658E0,1.000439167E1
4.438339329E0,-2.392822690E-2,-1.567298889E0,9.973284721E0
4.440750266E0,-1.435693540E-2,-1.579262972E0,9.932606697E0
4.443161256E0,-7.178467698E-3,-1.579262972E0,9.913464546E0
4.445572246E0,-9.571290575E-3,-1.572084427E0,9.870393753E0
4.447983183E0,-1.196411345E-2,-1.579262972E0,9.853643417E0
4.450394173E0,-1.196411345E-2,-1.588834286E0,9.820143700E0
4.452805162E0,-7.178467698E-3,-1.588834286E0,9.789037704E0
4.455216100E0,-4.785645287E-3,-1.576870084E0,9.769894600E0
4.457627089E0,-2.153540403E-2,-1.572084427E0,9.760323524E0
4.460038079E0,-1.914258115E-2,-1.581655741E0,9.753145218E0
4.462449016E0,-1.674975827E-2,-1.579262972E0,9.755537987E0
4.464860006E0,-1.914258115E-2,-1.584048629E0,9.757930756E0
4.467270996E0,-1.914258115E-2,-1.574477315E0,9.765109062E0
4.469681985E0,-2.153540403E-2,-1.572084427E0,9.786644936E0
4.472092923E0,-2.632104978E-2,-1.584048629E0,9.805787086E0
4.474503912E0,-4.067798331E-2,-1.603191137E0,9.839286804E0
4.476914902E0,-5.982056633E-2,-1.615155339E0,9.879964828E0
4.479325839E0,-6.939185411E-2,-1.617548108E0,9.908679008E0
4.481736829E0,-8.614161611E-2,-1.624726534E0,9.937392235E0
4.484147818E0,-9.092725813E-2,-1.615155339E0,9.975677490E0
4.486558756E0,-1.004985496E-1,-1.610369682E0,1.002114105E1
4.488969746E0,-1.196411327E-1,-1.612762451E0,1.007617569E1
4.491380735E0,-1.196411327E-1,-1.634297848E0,1.010967541E1
4.493791673E0,-1.292124242E-1,-1.634297848E0,1.015992451E1
4.496202662E0,-1.363908947E-1,-1.643869162E0,1.021017456E1
4.498613652E0,-1.555334777E-1,-1.665404558E0,1.027478027E1
4.501024589E0,-1.746760458E-1,-1.648654819E0,1.032502937E1
4.503435579E0,-1.914258152E-1,-1.660618901E0,1.037767220E1
4.505846568E0,-2.177468538E-1,-1.646261930E0,1.042313576E1
4.508257506E0,-2.273181528E-1,-1.641476393E0,1.045424175E1
4.510668496E0,-2.392822653E-1,-1.643869162E0,1.049491978E1
4.513079485E0,-2.608176768E-1,-1.639083505E0,1.053320503E1
4.515490423E0,-2.656033039E-1,-1.639083505E0,1.056191921E1
4.517901412E0,-2.847459018E-1,-1.634297848E0,1.059541893E1
4.520312402E0,-3.014956415E-1,-1.643869162E0,1.060020447E1
4.522723339E0,-3.302095234E-1,-1.627119422E0,1.062652493E1
4.525134329E0,-3.589234054E-1,-1.622333765E0,1.062891865E1
4.527545318E0,-3.708875179E-1,-1.607976794E0,1.065045357E1
4.529956256E0,-3.828516304E-1,-1.612762451E0,1.065284634E1
4.532367246E0,-4.139583111E-1,-1.588834286E0,1.065523911E1
4.534778235E0,-4.354937077E-1,-1.579262972E0,1.065045357E1
4.537189173E0,-4.474578202E-1,-1.574477315E0,1.064327526E1
4.539600162E0,-4.618147612E-1,-1.581655741E0,1.062891865E1
4.542011152E0,-4.761717021E-1,-1.564906001E0,1.061456108E1
4.544422089E0,-5.048855543E-1,-1.533799291E0,1.061934662E1
4.546833079E0,-4.881358147E-1,-1.512263894E0,1.059541893E1
4.549244068E0,-5.264210105E-1,-1.505085468E0,1.057149029E1
4.551655006E0,-5.383850932E-1,-1.488335729E0,1.055952644E1
4.554065996E0,-5.383850932E-1,-1.478764415E0,1.055474091E1
4.556476985E0,-5.718846321E-1,-1.447657704E0,1.053799057E1
4.558887975E0,-5.862415433E-1,-1.435693622E0,1.053081226E1
4.561298912E0,-5.910272002E-1,-1.421336651E0,1.051167011E1
4.563709902E0,-5.910272002E-1,-1.392622828E0,1.049731255E1
4.566120891E0,-6.125625968E-1,-1.366301775E0,1.049731255E1
4.568531829E0,-6.269195080E-1,-1.361516118E0,1.048295593E1
4.570942818E0,-6.340979934E-1,-1.342373490E0,1.047577763E1
4.573353808E0,-6.293123364E-1,-1.320838094E0,1.047099209E1
4.575764746E0,-6.484549642E-1,-1.280160069E0,1.046381378E1
4.578175735E0,-6.532405615E-1,-1.253839016E0,1.044706345E1
4.580586725E0,-6.652047038E-1,-1.227517962E0,1.045902824E1
4.582997662E0,-6.723831892E-1,-1.225125194E0,1.045424175E1
4.585408652E0,-6.867401004E-1,-1.194018483E0,1.044945621E1
4.587819641E0,-6.747759581E-1,-1.153340459E0,1.045663452E1
4.590230579E0,-6.675975323E-1,-1.134197950E0,1.048534870E1
4.592641568E0,-6.699903607E-1,-1.093519926E0,1.048774147E1
4.595052558E0,-6.795616150E-1,-1.057627559E0,1.050927734E1
4.597463496E0,-6.556333899E-1,-1.043270707E0,1.050449181E1
4.599874485E0,-6.652047038E-1,-1.012163997E0,1.051645565E1
4.602285475E0,-6.508477330E-1,-9.714859724E-1,1.051884842E1
4.604696412E0,-6.508477330E-1,-9.451649189E-1,1.052841949E1
4.607107402E0,-6.508477330E-1,-9.164510965E-1,1.055952644E1
4.609518391E0,-6.364908218E-1,-8.685946465E-1,1.055234814E1
4.611929329E0,-6.149554253E-1,-8.398807645E-1,1.054995537E1
4.614340318E0,-6.221339107E-1,-7.992027402E-1,1.055474091E1
4.616751308E0,-6.125625968E-1,-7.441678643E-1,1.056431198E1
4.619162246E0,-5.838487148E-1,-6.987041831E-1,1.055234814E1
4.621573235E0,-5.742774606E-1,-6.508477330E-1,1.054277611E1
4.623984225E0,-5.766702294E-1,-6.101697683E-1,1.054277611E1
4.626395214E0,-5.407779217E-1,-5.647061467E-1,1.052363396E1
4.628806152E0,-5.192425251E-1,-5.288137794E-1,1.050688457E1
4.631217141E0,-5.072783828E-1,-4.881358147E-1,1.049252701E1
4.633628079E0,-5.072783828E-1,-4.378865361E-1,1.046381378E1
4.636039068E0,-4.689932466E-1,-3.948157430E-1,1.044467068E1
4.638450058E0,-4.450650215E-1,-3.397808075E-1,1.041595650E1
4.640860996E0,-4.163511395E-1,-3.038884699E-1,1.039681435E1
4.643271985E0,-4.019941986E-1,-2.488535494E-1,1.037527943E1
4.645682975E0,-3.732803464E-1,-2.057827413E-1,1.033460140E1
4.648093964E0,-3.589234054E-1,-1.507478207E-1,1.028674412E1
4.650504902E0,-3.302095234E-1,-8.614161611E-2,1.024845982E1
4.652915891E0,-3.038884699E-1,-4.785645381E-2,1.019103146E1
4.655326881E0,-2.775674164E-1,1.196411345E-2,1.015992451E1
4.657737818E0,-2.440679073E-1,6.939185411E-2,1.011685371E1
4.660148808E0,-2.321037948E-1,1.004985496E-1,1.007617569E1
4.662559798E0,-2.225325108E-1,1.459621787E-1,1.003789139E1
4.664970735E0,-2.033899277E-1,1.938186288E-1,9.990034103E0
4.667381725E0,-1.746760458E-1,2.488535494E-1,9.963713646E0
4.669792714E0,-1.674975902E-1,2.823530734E-1,9.920642853E0
4.672203652E0,-1.363908947E-1,3.110669553E-1,9.879964828E0
4.674614641E0,-1.220339537E-1,3.708875179E-1,9.836894035E0
4.677025631E0,-9.571290761E-2,4.331009090E-1,9.812965393E0
4.679436568E0,-7.417750359E-2,4.785645306E-1,9.779465675E0
4.681847558E0,-5.742774159E-2,5.168496966E-1,9.760323524E0
4.684258548E0,-5.982056633E-2,5.527420044E-1,9.729216576E0
4.686669485E0,-5.264209956E-2,5.958128572E-1,9.705288887E0
4.689080475E0,-2.871387079E-2,6.245267391E-1,9.690931320E0
4.691491464E0,-2.632104978E-2,6.675975323E-1,9.690931320E0
4.693902454E0,-1.196411345E-2,7.154539824E-1,9.678967476E0
4.696313391E0,-4.785645287E-3,7.561319470E-1,9.664610863E0
4.698724381E0,-4.785645287E-3,7.728816867E-1,9.664610863E0
4.701135318E0,-1.196411345E-2,8.111668825E-1,9.662218094E0
4.703546308E0,-1.914258115E-2,8.518448472E-1,9.676574707E0
4.705957298E0,7.178467698E-3,8.877372146E-1,9.702896118E0
4.708368287E0,-9.571290575E-3,9.188438654E-1,9.719645500E0
4.710779225E0,-2.392822690E-2,9.547362328E-1,9.743574142E0
4.713190214E0,-3.110669367E-2,9.762716293E-1,9.769894600E0
4.715601204E0,-2.153540403E-2,9.906286001E-1,9.808179855E0
4.718012141E0,-5.503492057E-2,1.002592683E0,9.839286804E0
4.720423131E0,-5.982056633E-2,1.031306505E0,9.884750366E0
4.722834121E0,-5.982056633E-2,1.052842021E0,9.925428391E0
4.725245058E0,-8.614161611E-2,1.069591761E0,9.990034103E0
4.727656048E0,-9.571290761E-2,1.069591761E0,1.002592659E1
4.730067037E0,-1.196411327E-1,1.098305583E0,1.008814049E1
4.732477975E0,-1.435693651E-1,1.119840980E0,1.014317513E1
4.734888964E0,-1.746760458E-1,1.127019525E0,1.021256733E1
4.737299954E0,-2.009970993E-1,1.143769264E0,1.027956581E1
4.739710891E0,-2.177468538E-1,1.143769264E0,1.033220863E1
4.742121881E0,-2.440679073E-1,1.160519004E0,1.040399265E1
4.744532871E0,-2.703889608E-1,1.153340459E0,1.046620655E1
4.746943808E0,-3.038884699E-1,1.158126116E0,1.052841949E1
4.749354798E0,-3.206382394E-1,1.143769264E0,1.058584690E1
4.751765787E0,-3.589234054E-1,1.136590719E0,1.065284634E1
4.754176725E0,-3.900300860E-1,1.115055323E0,1.073898792E1
4.756587714E0,-4.115654826E-1,1.115055323E0,1.080838013E1
4.758998704E0,-4.450650215E-1,1.095912814E0,1.089212894E1
4.761409641E0,-4.761717021E-1,1.086341500E0,1.094955635E1
4.763820631E0,-4.953143001E-1,1.086341500E0,1.103091240E1
4.766231621E0,-5.335994363E-1,1.064806104E0,1.110987568E1
4.768642558E0,-5.551348329E-1,1.048056364E0,1.116730309E1
4.771053548E0,-5.766702294E-1,1.016949654E0,1.122951698E1
4.773464537E0,-6.053841114E-1,9.954141974E-1,1.130369377E1
4.775875475E0,-6.269195080E-1,9.619147182E-1,1.137547874E1
4.778286464E0,-6.628118753E-1,9.236295223E-1,1.144965649E1
4.780697454E0,-6.867401004E-1,8.973084688E-1,1.151904774E1
4.783108391E0,-6.891329288E-1,8.829515576E-1,1.158126163E1
4.785519381E0,-7.130611539E-1,8.255237937E-1,1.164826107E1
4.787930371E0,-7.202396393E-1,7.824530005E-1,1.171525955E1
4.790341360E0,-7.393822074E-1,7.298108935E-1,1.177029419E1
4.792752298E0,-7.513462901E-1,7.130611539E-1,1.182772255E1
4.795163287E0,-7.728816867E-1,6.628118753E-1,1.189232826E1
4.797574277E0,-7.800601721E-1,6.340979934E-1,1.196650600E1
4.799985214E0,-8.015955687E-1,5.742774606E-1,1.203111267E1
4.802396204E0,-7.920243144E-1,5.359922647E-1,1.207896900E1
4.804807193E0,-7.920243144E-1,4.905286431E-1,1.214596748E1
4.807218131E0,-8.135597110E-1,4.570291340E-1,1.221535969E1
4.809629121E0,-7.944171429E-1,3.972085714E-1,1.227757263E1
4.812040110E0,-8.039883971E-1,3.565305769E-1,1.232542896E1
4.814451048E0,-8.135597110E-1,3.158525825E-1,1.238764286E1
4.816862037E0,-8.087740541E-1,2.751746178E-1,1.243789196E1
4.819273027E0,-7.944171429E-1,2.273181528E-1,1.250010586E1
4.821683964E0,-7.944171429E-1,1.842473447E-1,1.255274773E1
4.824094954E0,-7.776673436E-1,1.268195957E-1,1.260060406E1
4.826505943E0,-7.513462901E-1,6.460621208E-2,1.266760349E1
4.828916881E0,-7.633104324E-1,1.435693540E-2,1.271306705E1
4.831327871E0,-7.250252366E-1,-2.632104978E-2,1.277528000E1
4.833738860E0,-7.106683254E-1,-7.178468257E-2,1.282552910E1
4.836149850E0,-7.010970116E-1,-1.244267747E-1,1.288056469E1
4.838560787E0,-6.867401004E-1,-1.818545163E-1,1.293559933E1
4.840971777E0,-6.580262184E-1,-2.321037948E-1,1.298824120E1
4.843382714E0,-6.412764788E-1,-2.679961324E-1,1.304088306E1
4.845793704E0,-6.293123364E-1,-2.991028428E-1,1.309113312E1
4.848204693E0,-6.101697683E-1,-3.493520916E-1,1.314377499E1
4.850615683E0,-5.838487148E-1,-4.187439680E-1,1.317488194E1
4.853026621E0,-5.575276613E-1,-4.785645306E-1,1.323470211E1
4.855437610E0,-5.312066078E-1,-5.168496966E-1,1.326341629E1
4.857848600E0,-4.929214716E-1,-5.670989752E-1,1.328973675E1
4.860259537E0,-4.713860750E-1,-6.029912829E-1,1.332323647E1
4.862670527E0,-4.498506486E-1,-6.723831892E-1,1.334955788E1
4.865081516E0,-4.307080805E-1,-7.178468108E-1,1.336870003E1
4.867492454E0,-4.043870270E-1,-7.633104324E-1,1.338305664E1
4.869903443E0,-3.637090325E-1,-7.872386575E-1,1.340937805E1
4.872314433E0,-3.469592929E-1,-8.135597110E-1,1.340698528E1
4.874725371E0,-3.302095234E-1,-8.542376757E-1,1.341894913E1
4.877136360E0,-2.919243574E-1,-8.973084688E-1,1.341177082E1
4.879547350E0,-2.751746178E-1,-9.308080077E-1,1.340698528E1
4.881958287E0,-2.679961324E-1,-9.738788009E-1,1.339502144E1
4.884369277E0,-2.464607358E-1,-1.000199914E0,1.339023590E1
4.886780266E0,-2.033899277E-1,-1.036092162E0,1.337348557E1
4.889191204E0,-1.890329868E-1,-1.057627559E0,1.333041477E1
4.891602193E0,-1.770688742E-1,-1.071984529E0,1.330887985E1
4.894013183E0,-1.579262912E-1,-1.129412293E0,1.329212952E1
4.896424121E0,-1.316052526E-1,-1.155733347E0,1.326102352E1
4.898835110E0,-1.148554832E-1,-1.189232826E0,1.321316624E1
4.901246100E0,-1.172483116E-1,-1.201196909E0,1.317488194E1
4.903657089E0,-1.124626622E-1,-1.220339537E0,1.315095329E1
4.906068027E0,-1.148554832E-1,-1.249053478E0,1.311984634E1
4.908479016E0,-1.172483116E-1,-1.261017561E0,1.307677555E1
4.910890006E0,-9.571290761E-2,-1.282552958E0,1.302891922E1
4.913300943E0,-9.332008660E-2,-1.289731383E0,1.299302673E1
4.915711933E0,-8.374879509E-2,-1.306481123E0,1.295234871E1
4.918122871E0,-8.374879509E-2,-1.304088354E0,1.291645622E1
4.920533860E0,-7.657032460E-2,-1.323230863E0,1.288295746E1
4.922944850E0,-9.092725813E-2,-1.335195065E0,1.285663605E1
4.925355839E0,-9.810572863E-2,-1.330409408E0,1.280399418E1
4.927766777E0,-9.810572863E-2,-1.332802176E0,1.277288723E1
4.930177766E0,-1.172483116E-1,-1.339980721E0,1.275613785E1
4.932588756E0,-1.220339537E-1,-1.347159147E0,1.272742367E1
4.934999693E0,-1.339980662E-1,-1.356730461E0,1.269870949E1
4.937410683E0,-1.459621787E-1,-1.361516118E0,1.269153118E1
4.939821673E0,-1.627119333E-1,-1.349551916E0,1.267238903E1
4.942232610E0,-1.603191197E-1,-1.356730461E0,1.265803146E1
4.944643600E0,-1.603191197E-1,-1.359123230E0,1.265085316E1
4.947054589E0,-1.842473447E-1,-1.349551916E0,1.262453270E1
