"Time (s)","Acceleration x (m/s^2)","Acceleration y (m/s^2)","Acceleration z (m/s^2)"
3.561152500E-2,-5.216353536E-1,6.989434719E0,7.137789726E0
3.802022300E-2,-5.240281820E-1,6.970292568E0,7.140182972E0
4.043121300E-2,-5.120640397E-1,6.946363926E0,7.154539585E0
4.284225500E-2,-4.737788737E-1,6.915257454E0,7.161718369E0
4.525324400E-2,-4.091726840E-1,6.896114826E0,7.168896675E0
4.766428600E-2,-3.373879790E-1,6.900900364E0,7.173682213E0
5.007532700E-2,-2.847459018E-1,6.920042992E0,7.200003147E0
5.248631700E-2,-2.225325108E-1,6.953542709E0,7.221538544E0
5.489735900E-2,-1.579262912E-1,6.979863644E0,7.243073940E0
5.730834800E-2,-1.124626622E-1,6.996613503E0,7.286144733E0
5.971939000E-2,-9.571290761E-2,7.006184578E0,7.341179848E0
6.213038000E-2,-1.172483116E-1,7.015756130E0,7.403393269E0
6.454100500E-2,-1.124626622E-1,7.010970116E0,7.496713161E0
6.695246300E-2,-1.483550072E-1,7.030112743E0,7.578069210E0
6.936345200E-2,-1.555334777E-1,7.037291527E0,7.645068169E0
7.177449400E-2,-1.698904037E-1,7.044469833E0,7.680960655E0
7.418548400E-2,-1.770688742E-1,7.046862602E0,7.692924976E0
7.659652500E-2,-1.627119333E-1,7.061219692E0,7.707281590E0
7.900756700E-2,-1.722832322E-1,7.058826923E0,7.726424217E0
8.141855700E-2,-1.603191197E-1,7.042077065E0,7.721638680E0
8.382959800E-2,-1.627119333E-1,7.044469833E0,7.735995770E0
8.624058800E-2,-1.770688742E-1,7.042077065E0,7.735995770E0
8.865163000E-2,-1.938186288E-1,7.030112743E0,7.714460373E0
9.106261900E-2,-2.057827413E-1,7.003791809E0,7.688138962E0
9.347366100E-2,-2.081755698E-1,6.991827965E0,7.666603565E0
9.588470200E-2,-1.986042857E-1,6.972685337E0,7.618747234E0
9.829569200E-2,-2.249253243E-1,6.936792850E0,7.592426300E0
1.007067340E-1,-2.273181528E-1,6.905686378E0,7.551748276E0
1.031177230E-1,-2.201396823E-1,6.862615108E0,7.515855789E0
1.055287650E-1,-2.321037948E-1,6.831508636E0,7.463213921E0
1.079397550E-1,-2.344966233E-1,6.805187702E0,7.391428947E0
1.103507960E-1,-2.392822653E-1,6.759724140E0,7.317251682E0
1.127618380E-1,-2.273181528E-1,6.731009960E0,7.240681171E0
1.151728270E-1,-2.153540403E-1,6.709474564E0,7.176074982E0
1.175838690E-1,-2.105683982E-1,6.678368092E0,7.137789726E0
1.199948590E-1,-1.914258152E-1,6.640082836E0,7.118647575E0
1.224059000E-1,-1.866401732E-1,6.585047722E0,7.118647575E0
1.248169420E-1,-1.555334777E-1,6.558726788E0,7.128218651E0
1.272279320E-1,-1.387837082E-1,6.541976929E0,7.128218651E0
1.296389730E-1,-1.172483116E-1,6.525227547E0,7.113861561E0
1.320499630E-1,-8.374879509E-2,6.503692150E0,7.077969551E0
1.344610050E-1,-7.417750359E-2,6.498906136E0,7.063612461E0
1.368719940E-1,-6.699903309E-2,6.501298904E0,7.073183537E0
1.392830360E-1,-8.374879509E-2,6.501298904E0,7.097112179E0
1.416940770E-1,-9.571290761E-2,6.525227547E0,7.133004189E0
1.441050670E-1,-9.810572863E-2,6.546762943E0,7.159325123E0
1.465161090E-1,-9.810572863E-2,6.561119556E0,7.202396393E0
1.489270980E-1,-1.100698411E-1,6.582654953E0,7.252645493E0
1.513381400E-1,-9.092725813E-2,6.594619274E0,7.293323517E0
1.537491300E-1,-9.092725813E-2,6.620940208E0,7.329215527E0
1.561601710E-1,-8.614161611E-2,6.637690067E0,7.367500782E0
1.585712130E-1,-1.100698411E-1,6.652047157E0,7.403393269E0
1.609822020E-1,-1.292124242E-1,6.673582554E0,7.422535896E0
1.633932440E-1,-1.555334777E-1,6.702296257E0,7.427321434E0
1.658042340E-1,-1.746760458E-1,6.721438885E0,7.434499741E0
1.682152750E-1,-2.033899277E-1,6.738188744E0,7.456035137E0
1.706263170E-1,-2.656033039E-1,6.783652306E0,7.456035137E0
1.730373070E-1,-2.967100143E-1,6.790830612E0,7.470392227E0
1.754483480E-1,-3.349951804E-1,6.800402164E0,7.489534855E0
1.778593380E-1,-3.565305769E-1,6.795616150E0,7.496713161E0
1.802703800E-1,-3.517449200E-1,6.798008919E0,7.477570534E0
1.826813690E-1,-3.661018610E-1,6.790830612E0,7.470392227E0
1.850924110E-1,-3.326023519E-1,6.802794933E0,7.460821152E0
1.875034520E-1,-3.158525825E-1,6.807580471E0,7.448856831E0
1.899144420E-1,-3.086741269E-1,6.809973240E0,7.444071293E0
1.923254840E-1,-3.134597540E-1,6.819544315E0,7.448856831E0
1.947364730E-1,-3.158525825E-1,6.821937561E0,7.434499741E0
1.971475150E-1,-3.206382394E-1,6.809973240E0,7.427321434E0
1.995585050E-1,-3.349951804E-1,6.800402164E0,7.398607731E0
2.019695460E-1,-3.565305769E-1,6.790830612E0,7.365108013E0
2.043805880E-1,-3.708875179E-1,6.778866768E0,7.353144169E0
2.067915770E-1,-3.804588020E-1,6.750152588E0,7.334001541E0
2.092026190E-1,-4.163511395E-1,6.754938126E0,7.326822758E0
2.116136090E-1,-4.450650215E-1,6.721438885E0,7.317251682E0
2.140246500E-1,-4.594219327E-1,6.716653347E0,7.278966427E0
2.164356920E-1,-4.594219327E-1,6.692724705E0,7.255038261E0
2.188466820E-1,-4.833501875E-1,6.692724705E0,7.214360237E0
2.212577230E-1,-5.096712112E-1,6.690331936E0,7.171289444E0
2.236687130E-1,-5.575276613E-1,6.661618233E0,7.147361279E0
2.260797550E-1,-6.125625968E-1,6.678368092E0,7.152146816E0
2.284907440E-1,-6.604190469E-1,6.692724705E0,7.159325123E0
2.309017860E-1,-7.034898400E-1,6.687939167E0,7.161718369E0
2.333128270E-1,-7.322037220E-1,6.690331936E0,7.190432072E0
2.357238170E-1,-7.369893789E-1,6.687939167E0,7.214360237E0
2.381348590E-1,-7.322037220E-1,6.697510719E0,7.226324558E0
2.405458480E-1,-7.082754970E-1,6.714260101E0,7.262216568E0
2.429568900E-1,-6.891329288E-1,6.747759819E0,7.290930748E0
2.453678800E-1,-6.532405615E-1,6.769295216E0,7.319644451E0
2.477789210E-1,-6.556333899E-1,6.788437843E0,7.343572617E0
2.501899630E-1,-6.675975323E-1,6.793223381E0,7.384250641E0
2.526009520E-1,-6.747759581E-1,6.824330330E0,7.422535896E0
2.550119940E-1,-6.915257573E-1,6.845865726E0,7.465606689E0
2.574229840E-1,-7.202396393E-1,6.876972198E0,7.496713161E0
2.598340250E-1,-7.465606928E-1,6.886543751E0,7.520641804E0
2.622450150E-1,-7.345965505E-1,6.888936520E0,7.542177200E0
2.646560570E-1,-7.345965505E-1,6.898507595E0,7.542177200E0
2.670670980E-1,-7.298108935E-1,6.910471916E0,7.556533813E0
2.694780880E-1,-7.345965505E-1,6.910471916E0,7.563712597E0
2.718891300E-1,-7.226324677E-1,6.922435760E0,7.558926582E0
2.743001190E-1,-6.987041831E-1,6.915257454E0,7.556533813E0
2.767111610E-1,-6.699903607E-1,6.912864685E0,7.549355507E0
2.791222020E-1,-6.508477330E-1,6.886543751E0,7.525427341E0
2.815331920E-1,-6.364908218E-1,6.872186661E0,7.484749317E0
2.839442340E-1,-6.293123364E-1,6.857829571E0,7.470392227E0
2.863552230E-1,-6.173482537E-1,6.867401123E0,7.458428383E0
2.887662650E-1,-5.982056856E-1,6.848258495E0,7.451249599E0
2.911772550E-1,-5.886343718E-1,6.841079712E0,7.444071293E0
2.935882960E-1,-5.742774606E-1,6.819544315E0,7.427321434E0
2.959993380E-1,-5.766702294E-1,6.800402164E0,7.420143127E0
2.984103270E-1,-5.647061467E-1,6.786045074E0,7.393822193E0
3.008213690E-1,-5.455635786E-1,6.766902447E0,7.343572617E0
3.032323590E-1,-5.072783828E-1,6.752545357E0,7.302894592E0
3.056434000E-1,-4.737788737E-1,6.747759819E0,7.245467186E0
3.080544420E-1,-4.450650215E-1,6.719046116E0,7.202396393E0
3.104654320E-1,-4.402793646E-1,6.711867332E0,7.137789726E0
3.128764730E-1,-4.331009090E-1,6.702296257E0,7.092326164E0
3.152874630E-1,-4.187439680E-1,6.680760860E0,7.066005230E0
3.176985050E-1,-4.211367965E-1,6.666403770E0,7.068397999E0
3.201094940E-1,-4.259224236E-1,6.666403770E0,7.082755089E0
3.225205360E-1,-4.235295951E-1,6.668796539E0,7.080362320E0
3.249315770E-1,-4.163511395E-1,6.671189308E0,7.068397999E0
3.273425670E-1,-3.876372576E-1,6.683153629E0,7.046862602E0
3.297536090E-1,-3.900300860E-1,6.702296257E0,7.058826923E0
3.321645980E-1,-3.732803464E-1,6.726224422E0,7.073183537E0
3.345756400E-1,-3.493520916E-1,6.747759819E0,7.097112179E0
3.369866300E-1,-3.373879790E-1,6.762116909E0,7.130611420E0
3.393976710E-1,-3.134597540E-1,6.771687984E0,7.149754047E0
3.418087130E-1,-2.943171859E-1,6.802794933E0,7.195217609E0
3.442197020E-1,-2.656033039E-1,6.836294174E0,7.252645493E0
3.466307440E-1,-2.440679073E-1,6.855436802E0,7.322037220E0
3.490417340E-1,-2.201396823E-1,6.860222340E0,7.391428947E0
3.514527750E-1,-2.009970993E-1,6.843472958E0,7.467999458E0
3.538637650E-1,-1.674975902E-1,6.850651264E0,7.511070251E0
3.562748070E-1,-1.363908947E-1,6.826723099E0,7.515855789E0
3.586858480E-1,-9.810572863E-2,6.841079712E0,7.489534855E0
3.610968380E-1,-7.178468257E-2,6.833901405E0,7.477570534E0
3.635078800E-1,-5.503492057E-2,6.833901405E0,7.458428383E0
3.659188690E-1,-5.982056633E-2,6.826723099E0,7.458428383E0
3.683299110E-1,-7.417750359E-2,6.807580471E0,7.446464062E0
3.707409520E-1,-1.244267747E-1,6.795616150E0,7.436892986E0
3.731519420E-1,-1.363908947E-1,6.798008919E0,7.439285755E0
3.755629840E-1,-1.507478207E-1,6.793223381E0,7.451249599E0
3.779739730E-1,-1.627119333E-1,6.802794933E0,7.417750359E0
3.803850150E-1,-1.627119333E-1,6.805187702E0,7.386643410E0
3.827960050E-1,-1.674975902E-1,6.807580471E0,7.350750923E0
3.852070460E-1,-1.674975902E-1,6.778866768E0,7.305287361E0
3.876180880E-1,-1.674975902E-1,6.783652306E0,7.259823799E0
3.900290770E-1,-1.962114573E-1,6.747759819E0,7.235895634E0
3.924401190E-1,-2.225325108E-1,6.733402729E0,7.228717327E0
3.948511090E-1,-2.416750938E-1,6.726224422E0,7.211967468E0
3.972621500E-1,-2.608176768E-1,6.707081795E0,7.176074982E0
3.996731920E-1,-2.847459018E-1,6.721438885E0,7.128218651E0
4.020841820E-1,-3.206382394E-1,6.728617191E0,7.080362320E0
4.044952230E-1,-3.613162339E-1,6.711867332E0,7.051648140E0
4.069062130E-1,-3.708875179E-1,6.699903488E0,7.044469833E0
4.093172550E-1,-3.876372576E-1,6.675975323E0,7.058826923E0
4.117282440E-1,-4.019941986E-1,6.664011002E0,7.094718933E0
4.141392860E-1,-3.732803464E-1,6.664011002E0,7.106683254E0
4.165503270E-1,-3.517449200E-1,6.659225464E0,7.106683254E0
4.189613170E-1,-3.397808075E-1,6.637690067E0,7.099504948E0
4.213723590E-1,-3.302095234E-1,6.659225464E0,7.097112179E0
4.237833480E-1,-3.062812984E-1,6.656832695E0,7.082755089E0
4.261943900E-1,-2.991028428E-1,6.661618233E0,7.075576782E0
4.286054320E-1,-3.134597540E-1,6.661618233E0,7.082755089E0
4.310164210E-1,-3.302095234E-1,6.671189308E0,7.109076023E0
4.334274630E-1,-3.469592929E-1,6.683153629E0,7.130611420E0
4.358384520E-1,-3.589234054E-1,6.697510719E0,7.164111137E0
4.382494940E-1,-3.756731451E-1,6.723831654E0,7.188039303E0
4.406604840E-1,-3.948157430E-1,6.733402729E0,7.200003147E0
4.430715250E-1,-4.115654826E-1,6.745367050E0,7.231110096E0
4.454825670E-1,-4.091726840E-1,6.771687984E0,7.257431030E0
4.478935570E-1,-4.163511395E-1,6.800402164E0,7.278966427E0
4.503045980E-1,-4.019941986E-1,6.809973240E0,7.326822758E0
4.527155880E-1,-4.019941986E-1,6.826723099E0,7.362715244E0
4.551266300E-1,-3.828516304E-1,6.857829571E0,7.393822193E0
4.575376190E-1,-3.852444589E-1,6.872186661E0,7.429714203E0
4.599486610E-1,-4.235295951E-1,6.903293133E0,7.467999458E0
4.623597020E-1,-4.307080805E-1,6.915257454E0,7.494320393E0
4.647706920E-1,-4.474578202E-1,6.939185619E0,7.518248558E0
4.671817340E-1,-4.642075896E-1,6.948757172E0,7.523034573E0
4.695927230E-1,-4.498506486E-1,6.979863644E0,7.549355507E0
4.720037650E-1,-4.498506486E-1,6.975078106E0,7.556533813E0
4.744147550E-1,-4.546363056E-1,6.984649181E0,7.558926582E0
4.768257960E-1,-4.594219327E-1,6.970292568E0,7.532605648E0
4.792368380E-1,-4.642075896E-1,6.951149940E0,7.499105930E0
4.816478270E-1,-4.977070987E-1,6.941578388E0,7.491927624E0
4.840588690E-1,-5.144568682E-1,6.929614544E0,7.467999458E0
4.864698590E-1,-5.407779217E-1,6.908079147E0,7.441678524E0
4.888809000E-1,-5.431707501E-1,6.881757736E0,7.412964344E0
4.912919420E-1,-5.359922647E-1,6.872186661E0,7.379465103E0
4.937029320E-1,-5.694918036E-1,6.874579430E0,7.343572617E0
4.961139730E-1,-5.790630579E-1,6.862615108E0,7.298109055E0
4.985249630E-1,-5.982056856E-1,6.857829571E0,7.235895634E0
5.009360050E-1,-6.340979934E-1,6.853044033E0,7.211967468E0
5.033469940E-1,-5.958128572E-1,6.874579430E0,7.219145775E0
5.057580360E-1,-5.599204898E-1,6.886543751E0,7.195217609E0
5.081690770E-1,-5.503492355E-1,6.874579430E0,7.197610378E0
5.105800670E-1,-5.575276613E-1,6.900900364E0,7.209574699E0
5.129911090E-1,-5.503492355E-1,6.900900364E0,7.228717327E0
5.154020980E-1,-5.575276613E-1,6.886543751E0,7.274180889E0
5.178131400E-1,-5.623133183E-1,6.884150982E0,7.319644451E0
5.202241820E-1,-5.527420044E-1,6.872186661E0,7.312466145E0
5.226351710E-1,-5.359922647E-1,6.898507595E0,7.305287361E0
5.250462130E-1,-5.288137794E-1,6.910471916E0,7.295716286E0
5.274572020E-1,-5.216353536E-1,6.924828529E0,7.286144733E0
5.298682440E-1,-5.288137794E-1,6.922435760E0,7.290930748E0
5.322792340E-1,-5.192425251E-1,6.922435760E0,7.331608772E0
5.346902750E-1,-5.120640397E-1,6.929614544E0,7.369893551E0
5.371013170E-1,-5.048855543E-1,6.951149940E0,7.391428947E0
5.395123070E-1,-5.192425251E-1,6.982256413E0,7.408178806E0
5.419233480E-1,-5.216353536E-1,7.013363361E0,7.432106972E0
5.443343380E-1,-5.312066078E-1,7.025327206E0,7.456035137E0
5.467453800E-1,-5.479564071E-1,7.044469833E0,7.501499176E0
5.491563690E-1,-5.575276613E-1,7.034898758E0,7.546962738E0
5.515674110E-1,-5.790630579E-1,7.042077065E0,7.575676441E0
5.539784520E-1,-6.077769399E-1,7.042077065E0,7.585247993E0
5.563894420E-1,-6.053841114E-1,7.056434155E0,7.585247993E0
5.588004840E-1,-5.814558864E-1,7.056434155E0,7.556533813E0
5.612114730E-1,-5.527420044E-1,7.037291527E0,7.527820110E0
5.636225150E-1,-5.240281820E-1,7.044469833E0,7.503891945E0
5.660335570E-1,-5.000999570E-1,7.032505512E0,7.467999458E0
5.684445460E-1,-4.953143001E-1,7.003791809E0,7.446464062E0
5.708555880E-1,-4.953143001E-1,6.977470875E0,7.436892986E0
5.732665770E-1,-4.905286431E-1,6.946363926E0,7.422535896E0
5.756776190E-1,-4.809573591E-1,6.898507595E0,7.408178806E0
5.780886090E-1,-4.737788737E-1,6.881757736E0,7.379465103E0
5.804996500E-1,-4.642075896E-1,6.850651264E0,7.331608772E0
5.829106400E-1,-4.522434771E-1,6.824330330E0,7.298109055E0
5.853216820E-1,-4.546363056E-1,6.814758778E0,7.271788120E0
5.877327230E-1,-4.426721931E-1,6.809973240E0,7.259823799E0
5.901437130E-1,-4.666004181E-1,6.778866768E0,7.226324558E0
5.925547550E-1,-4.522434771E-1,6.762116909E0,7.209574699E0
5.949657440E-1,-4.307080805E-1,6.742974281E0,7.197610378E0
5.973767860E-1,-4.354937077E-1,6.723831654E0,7.185646534E0
5.997878270E-1,-4.283152521E-1,6.719046116E0,7.161718369E0
6.021988170E-1,-4.139583111E-1,6.721438885E0,7.140182972E0
6.046098590E-1,-3.972085714E-1,6.731009960E0,7.154539585E0
6.070208480E-1,-3.900300860E-1,6.714260101E0,7.185646534E0
6.094318900E-1,-3.637090325E-1,6.719046116E0,7.223931789E0
6.118429320E-1,-3.565305769E-1,6.721438885E0,7.257431030E0
6.142539210E-1,-3.541377485E-1,6.721438885E0,7.276573658E0
6.166649630E-1,-3.397808075E-1,6.728617191E0,7.274180889E0
6.190759520E-1,-3.493520916E-1,6.731009960E0,7.269395351E0
6.214869940E-1,-3.493520916E-1,6.735795975E0,7.283751965E0
6.238979840E-1,-3.517449200E-1,6.721438885E0,7.314858913E0
6.263090250E-1,-3.661018610E-1,6.707081795E0,7.343572617E0
6.287200670E-1,-3.708875179E-1,6.719046116E0,7.372286797E0
6.311310570E-1,-3.565305769E-1,6.711867332E0,7.374679565E0
6.335420980E-1,-3.589234054E-1,6.687939167E0,7.336394310E0
6.359530880E-1,-3.756731451E-1,6.721438885E0,7.312466145E0
6.383641300E-1,-3.924229145E-1,6.735795975E0,7.288537979E0
6.407751710E-1,-4.043870270E-1,6.745367050E0,7.288537979E0
6.431861610E-1,-4.402793646E-1,6.731009960E0,7.295716286E0
6.455972020E-1,-4.833501875E-1,6.716653347E0,7.331608772E0
6.480081920E-1,-5.383850932E-1,6.690331936E0,7.338787079E0
6.504192340E-1,-5.934200287E-1,6.664011002E0,7.324429989E0
6.528302230E-1,-6.317051649E-1,6.659225464E0,7.290930748E0
6.552412650E-1,-6.173482537E-1,6.644868374E0,7.245467186E0
6.576523070E-1,-6.269195080E-1,6.630511761E0,7.190432072E0
6.600632960E-1,-6.197410822E-1,6.606583118E0,7.156932354E0
6.624743380E-1,-6.340979934E-1,6.597012043E0,7.128218651E0
6.648853270E-1,-6.460621357E-1,6.587440968E0,7.106683254E0
6.672963690E-1,-6.556333899E-1,6.561119556E0,7.101897717E0
6.697073590E-1,-6.628118753E-1,6.541976929E0,7.082755089E0
6.721184000E-1,-6.340979934E-1,6.520441532E0,7.070790768E0
6.745294420E-1,-5.814558864E-1,6.518048763E0,7.046862602E0
6.769404320E-1,-5.359922647E-1,6.513263226E0,7.037291527E0
6.793514730E-1,-5.072783828E-1,6.498906136E0,7.042077065E0
6.817624630E-1,-4.474578202E-1,6.489335060E0,7.085147858E0
6.841735050E-1,-3.924229145E-1,6.470192432E0,7.161718369E0
6.865844940E-1,-3.206382394E-1,6.436692715E0,7.233502865E0
6.889955360E-1,-2.751746178E-1,6.419943333E0,7.269395351E0
6.914065770E-1,-2.392822653E-1,6.424728870E0,7.255038261E0
6.938175670E-1,-2.033899277E-1,6.446264267E0,7.228717327E0
6.962286090E-1,-1.890329868E-1,6.489335060E0,7.188039303E0
6.986395980E-1,-2.009970993E-1,6.510870457E0,7.188039303E0
7.010506400E-1,-2.225325108E-1,6.541976929E0,7.235895634E0
7.034616820E-1,-2.679961324E-1,6.568298340E0,7.278966427E0
7.058726710E-1,-2.967100143E-1,6.618547440E0,7.307680130E0
7.082837130E-1,-3.062812984E-1,6.649653912E0,7.341179848E0
7.106947020E-1,-3.254238665E-1,6.692724705E0,7.379465103E0
7.131057440E-1,-3.110669553E-1,6.733402729E0,7.405786037E0
7.155167860E-1,-2.799602449E-1,6.745367050E0,7.403393269E0
7.179277750E-1,-2.632105052E-1,6.781259537E0,7.427321434E0
7.203388170E-1,-2.656033039E-1,6.805187702E0,7.458428383E0
7.227498070E-1,-2.560320199E-1,6.831508636E0,7.494320393E0
7.251608480E-1,-2.488535494E-1,6.857829571E0,7.532605648E0
7.275718380E-1,-2.584248483E-1,6.900900364E0,7.549355507E0
7.299828800E-1,-2.440679073E-1,6.924828529E0,7.563712597E0
7.323938690E-1,-2.321037948E-1,6.946363926E0,7.561319351E0
7.348049110E-1,-2.273181528E-1,6.975078106E0,7.568498135E0
7.372159520E-1,-2.440679073E-1,6.989434719E0,7.558926582E0
7.396269420E-1,-2.464607358E-1,6.970292568E0,7.537391186E0
7.420379840E-1,-2.440679073E-1,6.960721016E0,7.527820110E0
7.444489730E-1,-2.608176768E-1,6.965506554E0,7.501499176E0
7.468600150E-1,-2.943171859E-1,6.955935478E0,7.475177765E0
7.492710570E-1,-2.967100143E-1,6.946363926E0,7.446464062E0
7.516820460E-1,-3.014956415E-1,6.920042992E0,7.422535896E0
7.540930880E-1,-3.110669553E-1,6.900900364E0,7.405786037E0
7.565040770E-1,-3.134597540E-1,6.886543751E0,7.396214962E0
7.589151190E-1,-3.230310678E-1,6.888936520E0,7.360322475E0
7.613261090E-1,-3.230310678E-1,6.876972198E0,7.319644451E0
7.637371500E-1,-3.110669553E-1,6.869793892E0,7.288537979E0
7.661481920E-1,-2.967100143E-1,6.853044033E0,7.257431030E0
7.685591820E-1,-2.991028428E-1,6.829115868E0,7.252645493E0
7.709702230E-1,-2.991028428E-1,6.812366009E0,7.269395351E0
7.733812130E-1,-2.919243574E-1,6.802794933E0,7.288537979E0
7.757922550E-1,-2.751746178E-1,6.793223381E0,7.324429989E0
7.782032960E-1,-2.440679073E-1,6.793223381E0,7.329215527E0
7.806142860E-1,-2.297109663E-1,6.764509678E0,7.345965385E0
7.830253270E-1,-2.321037948E-1,6.754938126E0,7.362715244E0
7.854363170E-1,-2.225325108E-1,6.757331371E0,7.369893551E0
7.878473590E-1,-2.249253243E-1,6.783652306E0,7.386643410E0
7.902583480E-1,-2.512463629E-1,6.786045074E0,7.396214962E0
7.926693900E-1,-3.038884699E-1,6.819544315E0,7.403393269E0
7.950804320E-1,-3.302095234E-1,6.836294174E0,7.403393269E0
7.974914210E-1,-3.517449200E-1,6.843472958E0,7.403393269E0
7.999024630E-1,-3.828516304E-1,6.848258495E0,7.424928665E0
8.023134520E-1,-4.283152521E-1,6.865008354E0,7.420143127E0
8.047244940E-1,-4.642075896E-1,6.855436802E0,7.422535896E0
8.071355360E-1,-5.096712112E-1,6.867401123E0,7.412964344E0
8.095465250E-1,-5.168496966E-1,6.867401123E0,7.405786037E0
8.119575670E-1,-5.431707501E-1,6.867401123E0,7.377072334E0
8.143685570E-1,-5.814558864E-1,6.872186661E0,7.367500782E0
8.167795980E-1,-5.958128572E-1,6.865008354E0,7.369893551E0
8.191905880E-1,-6.173482537E-1,6.865008354E0,7.362715244E0
8.216016300E-1,-6.364908218E-1,6.860222340E0,7.367500782E0
8.240126190E-1,-6.340979934E-1,6.869793892E0,7.353144169E0
8.264236610E-1,-6.436693072E-1,6.865008354E0,7.345965385E0
8.288347020E-1,-6.221339107E-1,6.850651264E0,7.348358154E0
8.312456920E-1,-5.934200287E-1,6.853044033E0,7.353144169E0
8.336567340E-1,-5.814558864E-1,6.838686943E0,7.353144169E0
8.360677230E-1,-5.718846321E-1,6.824330330E0,7.336394310E0
8.384787650E-1,-5.503492355E-1,6.812366009E0,7.341179848E0
8.408898070E-1,-5.431707501E-1,6.817151546E0,7.334001541E0
8.433007960E-1,-5.359922647E-1,6.807580471E0,7.331608772E0
8.457118380E-1,-5.264210105E-1,6.786045074E0,7.317251682E0
8.481228270E-1,-5.312066078E-1,6.769295216E0,7.310073376E0
8.505338690E-1,-5.431707501E-1,6.769295216E0,7.298109055E0
8.529449110E-1,-5.312066078E-1,6.781259537E0,7.298109055E0
8.553559000E-1,-5.168496966E-1,6.747759819E0,7.286144733E0
8.577669420E-1,-5.288137794E-1,6.752545357E0,7.267002583E0
8.601779320E-1,-5.168496966E-1,6.747759819E0,7.247859955E0
8.625889730E-1,-5.120640397E-1,6.731009960E0,7.219145775E0
8.649999630E-1,-5.024927258E-1,6.728617191E0,7.192824841E0
8.674110050E-1,-5.216353536E-1,6.735795975E0,7.178467751E0
8.698220460E-1,-5.527420044E-1,6.745367050E0,7.190432072E0
8.722330360E-1,-5.647061467E-1,6.738188744E0,7.197610378E0
8.746440770E-1,-5.575276613E-1,6.731009960E0,7.219145775E0
8.770550670E-1,-5.407779217E-1,6.738188744E0,7.235895634E0
8.794661090E-1,-5.312066078E-1,6.738188744E0,7.252645493E0
8.818770980E-1,-5.048855543E-1,6.742974281E0,7.269395351E0
8.842881400E-1,-5.024927258E-1,6.745367050E0,7.278966427E0
8.866991820E-1,-4.833501875E-1,6.747759819E0,7.276573658E0
8.891101710E-1,-4.426721931E-1,6.754938126E0,7.290930748E0
8.915212130E-1,-4.474578202E-1,6.766902447E0,7.314858913E0
8.939322020E-1,-4.546363056E-1,6.786045074E0,7.322037220E0
8.963432440E-1,-4.618147612E-1,6.812366009E0,7.324429989E0
8.987542860E-1,-4.522434771E-1,6.805187702E0,7.307680130E0
9.011652750E-1,-4.642075896E-1,6.826723099E0,7.329215527E0
9.035763170E-1,-4.809573591E-1,6.831508636E0,7.336394310E0
9.059873070E-1,-5.024927258E-1,6.841079712E0,7.345965385E0
9.083983480E-1,-5.264210105E-1,6.865008354E0,7.348358154E0
9.108093380E-1,-5.407779217E-1,6.857829571E0,7.355536938E0
9.132203800E-1,-5.766702294E-1,6.865008354E0,7.360322475E0
9.156314210E-1,-6.077769399E-1,6.869793892E0,7.343572617E0
9.180424110E-1,-6.197410822E-1,6.865008354E0,7.334001541E0
9.204534520E-1,-6.221339107E-1,6.853044033E0,7.307680130E0
9.228644420E-1,-6.221339107E-1,6.860222340E0,7.288537979E0
9.252754840E-1,-6.101697683E-1,6.872186661E0,7.281359196E0
9.276864730E-1,-6.197410822E-1,6.874579430E0,7.267002583E0
9.300975150E-1,-6.077769399E-1,6.879364967E0,7.276573658E0
9.325085570E-1,-6.101697683E-1,6.869793892E0,7.271788120E0
9.349195460E-1,-6.149554253E-1,6.855436802E0,7.267002583E0
9.373305880E-1,-6.197410822E-1,6.857829571E0,7.255038261E0
9.397415770E-1,-6.149554253E-1,6.869793892E0,7.252645493E0
9.421526190E-1,-6.077769399E-1,6.855436802E0,7.245467186E0
9.445636090E-1,-6.029912829E-1,6.838686943E0,7.252645493E0
9.469746500E-1,-5.718846321E-1,6.843472958E0,7.274180889E0
9.493856920E-1,-5.670989752E-1,6.843472958E0,7.290930748E0
9.517966820E-1,-5.551348329E-1,6.836294174E0,7.307680130E0
9.542077230E-1,-5.551348329E-1,6.826723099E0,7.319644451E0
9.566187130E-1,-5.359922647E-1,6.809973240E0,7.338787079E0
9.590297550E-1,-5.144568682E-1,6.800402164E0,7.348358154E0
9.614407440E-1,-5.144568682E-1,6.783652306E0,7.365108013E0
9.638517860E-1,-5.096712112E-1,6.790830612E0,7.379465103E0
9.662628270E-1,-4.953143001E-1,6.790830612E0,7.374679565E0
9.686738170E-1,-4.761717021E-1,6.778866768E0,7.379465103E0
9.710848590E-1,-4.642075896E-1,6.776473522E0,7.386643410E0
9.734958480E-1,-4.737788737E-1,6.774080753E0,7.369893551E0
9.759068900E-1,-4.881358147E-1,6.754938126E0,7.357929707E0
9.783179320E-1,-4.905286431E-1,6.757331371E0,7.357929707E0
9.807289210E-1,-4.881358147E-1,6.747759819E0,7.360322475E0
9.831399630E-1,-4.977070987E-1,6.745367050E0,7.367500782E0
9.855509520E-1,-4.761717021E-1,6.738188744E0,7.401000500E0
9.879619940E-1,-4.713860750E-1,6.731009960E0,7.401000500E0
9.903730360E-1,-4.689932466E-1,6.726224422E0,7.408178806E0
9.927840250E-1,-4.426721931E-1,6.723831654E0,7.412964344E0
9.951950670E-1,-4.163511395E-1,6.735795975E0,7.424928665E0
9.976060570E-1,-3.996013701E-1,6.733402729E0,7.422535896E0
1.000017098E0,-4.067798555E-1,6.738188744E0,7.422535896E0
1.002428088E0,-4.211367965E-1,6.747759819E0,7.436892986E0
1.004839130E0,-4.546363056E-1,6.733402729E0,7.451249599E0
1.007250171E0,-5.024927258E-1,6.747759819E0,7.444071293E0
1.009661161E0,-5.359922647E-1,6.774080753E0,7.446464062E0
1.012072202E0,-5.551348329E-1,6.762116909E0,7.453642368E0
1.014483192E0,-5.670989752E-1,6.795616150E0,7.456035137E0
1.016894234E0,-5.838487148E-1,6.821937561E0,7.441678524E0
1.019305223E0,-5.910272002E-1,6.814758778E0,7.429714203E0
1.021716265E0,-5.886343718E-1,6.819544315E0,7.436892986E0
1.024127307E0,-5.862415433E-1,6.809973240E0,7.434499741E0
1.026538296E0,-5.838487148E-1,6.812366009E0,7.444071293E0
1.028949338E0,-5.623133183E-1,6.798008919E0,7.429714203E0
1.031360327E0,-5.431707501E-1,6.786045074E0,7.408178806E0
1.033771369E0,-5.335994363E-1,6.778866768E0,7.386643410E0
1.036182359E0,-5.288137794E-1,6.769295216E0,7.350750923E0
1.038593400E0,-4.881358147E-1,6.764509678E0,7.329215527E0
1.041004442E0,-4.666004181E-1,6.745367050E0,7.319644451E0
1.043415432E0,-4.402793646E-1,6.728617191E0,7.343572617E0
1.045826473E0,-4.331009090E-1,6.702296257E0,7.345965385E0
1.048237463E0,-4.139583111E-1,6.680760860E0,7.377072334E0
1.050648505E0,-4.019941986E-1,6.654439926E0,7.379465103E0
1.053059546E0,-4.091726840E-1,6.659225464E0,7.362715244E0
1.055470536E0,-4.091726840E-1,6.678368092E0,7.338787079E0
1.057881577E0,-4.259224236E-1,6.687939167E0,7.319644451E0
1.060292567E0,-4.594219327E-1,6.699903488E0,7.334001541E0
1.062703609E0,-4.905286431E-1,6.709474564E0,7.377072334E0
1.065114650E0,-5.312066078E-1,6.726224422E0,7.403393269E0
1.067525640E0,-5.359922647E-1,6.740581512E0,7.432106972E0
1.069936682E0,-5.431707501E-1,6.740581512E0,7.422535896E0
1.072347671E0,-5.766702294E-1,6.735795975E0,7.417750359E0
1.074758713E0,-5.575276613E-1,6.742974281E0,7.408178806E0
1.077169702E0,-5.503492355E-1,6.757331371E0,7.379465103E0
1.079580744E0,-5.575276613E-1,6.764509678E0,7.331608772E0
1.081991734E0,-5.383850932E-1,6.764509678E0,7.305287361E0
1.084402775E0,-5.120640397E-1,6.742974281E0,7.290930748E0
1.086813817E0,-4.905286431E-1,6.735795975E0,7.293323517E0
1.089224807E0,-4.833501875E-1,6.692724705E0,7.329215527E0
1.091635848E0,-4.570291340E-1,6.647261143E0,7.348358154E0
1.094046838E0,-4.283152521E-1,6.613761902E0,7.338787079E0
1.096457880E0,-4.163511395E-1,6.611369133E0,7.302894592E0
1.098868921E0,-3.852444589E-1,6.601797581E0,7.257431030E0
1.101279911E0,-3.517449200E-1,6.580262184E0,7.214360237E0
1.103690952E0,-3.445664644E-1,6.565905571E0,7.185646534E0
1.106101942E0,-3.421736360E-1,6.563512325E0,7.192824841E0
1.108512984E0,-3.565305769E-1,6.575476646E0,7.209574699E0
1.110924025E0,-3.565305769E-1,6.592226505E0,7.211967468E0
1.113335015E0,-3.924229145E-1,6.606583118E0,7.223931789E0
1.115746057E0,-4.067798555E-1,6.630511761E0,7.228717327E0
1.118157046E0,-4.115654826E-1,6.642475605E0,7.219145775E0
1.120568088E0,-4.331009090E-1,6.664011002E0,7.240681171E0
1.122979077E0,-4.474578202E-1,6.692724705E0,7.259823799E0
1.125390119E0,-4.618147612E-1,6.728617191E0,7.274180889E0
1.127801161E0,-4.857429862E-1,6.738188744E0,7.302894592E0
1.130212150E0,-4.737788737E-1,6.745367050E0,7.338787079E0
1.132623192E0,-4.929214716E-1,6.769295216E0,7.360322475E0
1.135034182E0,-4.689932466E-1,6.781259537E0,7.372286797E0
1.137445223E0,-4.618147612E-1,6.795616150E0,7.381857872E0
1.139856213E0,-4.666004181E-1,6.802794933E0,7.386643410E0
1.142267255E0,-4.689932466E-1,6.812366009E0,7.396214962E0
1.144678296E0,-4.761717021E-1,6.817151546E0,7.393822193E0
1.147089286E0,-5.048855543E-1,6.826723099E0,7.403393269E0
1.149500327E0,-5.168496966E-1,6.836294174E0,7.408178806E0
1.151911317E0,-5.407779217E-1,6.841079712E0,7.422535896E0
1.154322359E0,-5.383850932E-1,6.821937561E0,7.453642368E0
1.156733400E0,-5.383850932E-1,6.824330330E0,7.456035137E0
1.159144390E0,-5.168496966E-1,6.831508636E0,7.479963779E0
1.161555432E0,-4.953143001E-1,6.831508636E0,7.489534855E0
1.163966421E0,-4.689932466E-1,6.817151546E0,7.491927624E0
1.166377463E0,-4.546363056E-1,6.814758778E0,7.489534855E0
1.168788452E0,-4.474578202E-1,6.819544315E0,7.496713161E0
1.171199494E0,-4.426721931E-1,6.805187702E0,7.472784996E0
1.173610536E0,-4.546363056E-1,6.800402164E0,7.453642368E0
1.176021525E0,-4.642075896E-1,6.802794933E0,7.475177765E0
1.178432567E0,-4.929214716E-1,6.776473522E0,7.491927624E0
1.180843557E0,-4.953143001E-1,6.807580471E0,7.515855789E0
1.183254598E0,-5.096712112E-1,6.817151546E0,7.527820110E0
1.185665588E0,-5.096712112E-1,6.814758778E0,7.558926582E0
1.188076630E0,-4.929214716E-1,6.805187702E0,7.575676441E0
1.190487671E0,-4.881358147E-1,6.800402164E0,7.580461979E0
1.192898661E0,-4.809573591E-1,6.793223381E0,7.573283672E0
1.195309702E0,-4.642075896E-1,6.812366009E0,7.568498135E0
1.197720692E0,-4.402793646E-1,6.817151546E0,7.549355507E0
1.200131734E0,-4.474578202E-1,6.826723099E0,7.523034573E0
1.202542775E0,-4.594219327E-1,6.826723099E0,7.525427341E0
1.204953765E0,-4.642075896E-1,6.809973240E0,7.525427341E0
1.207364807E0,-4.666004181E-1,6.788437843E0,7.523034573E0
1.209775796E0,-4.642075896E-1,6.786045074E0,7.515855789E0
1.212186838E0,-4.618147612E-1,6.774080753E0,7.511070251E0
1.214597827E0,-4.570291340E-1,6.776473522E0,7.506284714E0
1.217008869E0,-4.618147612E-1,6.752545357E0,7.487142086E0
1.219419911E0,-4.642075896E-1,6.740581512E0,7.475177765E0
1.221830900E0,-4.331009090E-1,6.719046116E0,7.458428383E0
1.224241942E0,-4.259224236E-1,6.714260101E0,7.427321434E0
1.226652932E0,-4.043870270E-1,6.695117950E0,7.424928665E0
1.229063973E0,-3.972085714E-1,6.680760860E0,7.424928665E0
1.231474963E0,-3.948157430E-1,6.675975323E0,7.427321434E0
1.233886005E0,-3.924229145E-1,6.671189308E0,7.429714203E0
1.236297046E0,-3.924229145E-1,6.661618233E0,7.436892986E0
1.238708036E0,-3.852444589E-1,6.659225464E0,7.420143127E0
1.241119077E0,-3.852444589E-1,6.671189308E0,7.422535896E0
1.243530067E0,-3.972085714E-1,6.678368092E0,7.432106972E0
1.245941109E0,-3.828516304E-1,6.671189308E0,7.439285755E0
1.248352150E0,-3.732803464E-1,6.678368092E0,7.463213921E0
1.250763140E0,-3.876372576E-1,6.687939167E0,7.475177765E0
1.253174182E0,-3.972085714E-1,6.690331936E0,7.467999458E0
1.255585171E0,-3.828516304E-1,6.714260101E0,7.472784996E0
1.257996213E0,-3.828516304E-1,6.738188744E0,7.463213921E0
1.260407202E0,-4.067798555E-1,6.733402729E0,7.472784996E0
1.262818244E0,-4.211367965E-1,6.752545357E0,7.491927624E0
1.265229286E0,-4.546363056E-1,6.759724140E0,7.501499176E0
1.267640275E0,-4.785645306E-1,6.769295216E0,7.525427341E0
1.270051317E0,-4.905286431E-1,6.776473522E0,7.549355507E0
1.272462307E0,-4.953143001E-1,6.776473522E0,7.568498135E0
1.274873348E0,-4.857429862E-1,6.793223381E0,7.573283672E0
1.277284390E0,-4.761717021E-1,6.798008919E0,7.558926582E0
1.279695380E0,-4.881358147E-1,6.786045074E0,7.551748276E0
1.282106421E0,-4.689932466E-1,6.762116909E0,7.532605648E0
1.284517411E0,-4.498506486E-1,6.747759819E0,7.518248558E0
1.286928452E0,-4.450650215E-1,6.731009960E0,7.508677483E0
1.289339442E0,-4.594219327E-1,6.740581512E0,7.496713161E0
1.291750484E0,-4.689932466E-1,6.738188744E0,7.491927624E0
1.294161525E0,-4.809573591E-1,6.731009960E0,7.496713161E0
1.296572515E0,-5.024927258E-1,6.699903488E0,7.482356548E0
1.298983557E0,-5.168496966E-1,6.690331936E0,7.444071293E0
1.301394546E0,-5.359922647E-1,6.692724705E0,7.415357590E0
1.303805588E0,-5.240281820E-1,6.699903488E0,7.386643410E0
1.306216630E0,-5.551348329E-1,6.685546398E0,7.350750923E0
1.308627619E0,-5.670989752E-1,6.685546398E0,7.324429989E0
1.311038661E0,-5.862415433E-1,6.690331936E0,7.324429989E0
1.313449650E0,-5.982056856E-1,6.697510719E0,7.314858913E0
1.315860692E0,-6.269195080E-1,6.685546398E0,7.324429989E0
1.318271682E0,-6.460621357E-1,6.680760860E0,7.329215527E0
1.320682723E0,-6.484549642E-1,6.668796539E0,7.341179848E0
1.323093713E0,-6.460621357E-1,6.680760860E0,7.341179848E0
1.325504755E0,-6.388836503E-1,6.695117950E0,7.348358154E0
1.327915796E0,-6.604190469E-1,6.695117950E0,7.348358154E0
1.330326786E0,-6.293123364E-1,6.692724705E0,7.343572617E0
1.332737827E0,-6.149554253E-1,6.683153629E0,7.348358154E0
1.335148817E0,-6.197410822E-1,6.685546398E0,7.367500782E0
1.337559859E0,-6.221339107E-1,6.678368092E0,7.381857872E0
1.339970900E0,-6.005984545E-1,6.671189308E0,7.393822193E0
1.342381890E0,-5.910272002E-1,6.666403770E0,7.410571575E0
1.344792932E0,-6.053841114E-1,6.647261143E0,7.424928665E0
1.347203921E0,-5.982056856E-1,6.625725746E0,7.415357590E0
1.349614963E0,-5.742774606E-1,6.642475605E0,7.427321434E0
1.352025952E0,-5.814558864E-1,6.640082836E0,7.432106972E0
1.354436994E0,-5.694918036E-1,6.640082836E0,7.429714203E0
1.356848036E0,-5.599204898E-1,6.620940208E0,7.436892986E0
1.359259025E0,-5.647061467E-1,6.608976364E0,7.429714203E0
1.361670067E0,-5.647061467E-1,6.611369133E0,7.429714203E0
1.364081057E0,-5.718846321E-1,6.592226505E0,7.424928665E0
1.366492098E0,-5.838487148E-1,6.575476646E0,7.412964344E0
1.368903140E0,-5.862415433E-1,6.568298340E0,7.393822193E0
1.371314130E0,-6.149554253E-1,6.553941250E0,7.379465103E0
1.373725171E0,-6.125625968E-1,6.556334019E0,7.365108013E0
1.376136161E0,-5.982056856E-1,6.556334019E0,7.355536938E0
1.378547202E0,-6.101697683E-1,6.551548481E0,7.334001541E0
1.380958192E0,-6.005984545E-1,6.544369698E0,7.310073376E0
1.383369234E0,-5.886343718E-1,6.530013084E0,7.302894592E0
1.385780275E0,-5.862415433E-1,6.522834301E0,7.288537979E0
1.388191265E0,-5.551348329E-1,6.537191391E0,7.290930748E0
1.390602307E0,-5.431707501E-1,6.522834301E0,7.286144733E0
1.393013296E0,-5.479564071E-1,6.522834301E0,7.278966427E0
1.395424338E0,-5.407779217E-1,6.534798622E0,7.257431030E0
1.397835327E0,-5.312066078E-1,6.556334019E0,7.238288403E0
1.400246369E0,-5.240281820E-1,6.558726788E0,7.226324558E0
1.402657411E0,-5.455635786E-1,6.551548481E0,7.211967468E0
1.405068400E0,-5.766702294E-1,6.568298340E0,7.207181931E0
1.407479442E0,-5.623133183E-1,6.568298340E0,7.223931789E0
1.409890432E0,-5.958128572E-1,6.568298340E0,7.257431030E0
1.412301473E0,-6.005984545E-1,6.587440968E0,7.300501823E0
1.414712515E0,-6.029912829E-1,6.592226505E0,7.312466145E0
1.417123505E0,-5.982056856E-1,6.611369133E0,7.336394310E0
1.419534546E0,-6.221339107E-1,6.625725746E0,7.341179848E0
1.421945536E0,-6.173482537E-1,6.625725746E0,7.372286797E0
1.424356577E0,-6.340979934E-1,6.652047157E0,7.396214962E0
1.426767619E0,-6.484549642E-1,6.661618233E0,7.420143127E0
1.429178609E0,-6.508477330E-1,6.675975323E0,7.448856831E0
1.431589650E0,-6.484549642E-1,6.707081795E0,7.479963779E0
1.434000640E0,-6.364908218E-1,6.719046116E0,7.499105930E0
1.436411682E0,-6.269195080E-1,6.731009960E0,7.511070251E0
1.438822671E0,-6.053841114E-1,6.728617191E0,7.511070251E0
1.441233713E0,-6.125625968E-1,6.752545357E0,7.523034573E0
1.443644755E0,-6.197410822E-1,6.774080753E0,7.558926582E0
1.446055744E0,-6.053841114E-1,6.783652306E0,7.606783390E0
1.448466786E0,-5.934200287E-1,6.778866768E0,7.635497093E0
1.450877775E0,-5.814558864E-1,6.786045074E0,7.659425259E0
1.453288817E0,-5.623133183E-1,6.781259537E0,7.654639721E0
1.455699807E0,-5.455635786E-1,6.774080753E0,7.661818027E0
1.458110848E0,-5.072783828E-1,6.764509678E0,7.645068169E0
1.460521890E0,-4.713860750E-1,6.759724140E0,7.633104324E0
1.462932880E0,-4.498506486E-1,6.764509678E0,7.604390144E0
1.465343921E0,-4.618147612E-1,6.752545357E0,7.590033531E0
1.467754911E0,-4.426721931E-1,6.747759819E0,7.563712597E0
1.470165952E0,-4.354937077E-1,6.723831654E0,7.532605648E0
1.472576942E0,-4.498506486E-1,6.726224422E0,7.487142086E0
1.474987984E0,-4.522434771E-1,6.711867332E0,7.451249599E0
1.477399025E0,-4.809573591E-1,6.707081795E0,7.427321434E0
1.479810015E0,-4.881358147E-1,6.690331936E0,7.408178806E0
1.482221057E0,-4.953143001E-1,6.678368092E0,7.379465103E0
1.484632046E0,-4.785645306E-1,6.652047157E0,7.379465103E0
1.487043088E0,-4.666004181E-1,6.656832695E0,7.377072334E0
1.489454130E0,-4.761717021E-1,6.656832695E0,7.367500782E0
1.491865119E0,-4.546363056E-1,6.637690067E0,7.345965385E0
1.494276161E0,-4.331009090E-1,6.632904530E0,7.336394310E0
1.496687150E0,-4.450650215E-1,6.625725746E0,7.343572617E0
1.499098192E0,-4.235295951E-1,6.623332977E0,7.350750923E0
1.501509182E0,-4.043870270E-1,6.604190350E0,7.348358154E0
1.503920223E0,-3.996013701E-1,6.601797581E0,7.372286797E0
1.506331265E0,-4.115654826E-1,6.613761902E0,7.374679565E0
1.508742255E0,-4.378865361E-1,6.647261143E0,7.403393269E0
1.511153296E0,-4.426721931E-1,6.654439926E0,7.427321434E0
1.513564286E0,-4.450650215E-1,6.666403770E0,7.451249599E0
1.515975327E0,-4.498506486E-1,6.678368092E0,7.482356548E0
1.518386369E0,-4.474578202E-1,6.704689026E0,7.515855789E0
1.520797359E0,-4.402793646E-1,6.699903488E0,7.551748276E0
1.523208400E0,-4.402793646E-1,6.716653347E0,7.563712597E0
1.525619390E0,-4.666004181E-1,6.738188744E0,7.580461979E0
1.528030432E0,-4.881358147E-1,6.747759819E0,7.611568928E0
1.530441421E0,-5.072783828E-1,6.747759819E0,7.628318787E0
1.532852463E0,-5.288137794E-1,6.762116909E0,7.635497093E0
1.535263505E0,-5.575276613E-1,6.769295216E0,7.642675400E0
1.537674494E0,-5.982056856E-1,6.771687984E0,7.652246952E0
1.540085536E0,-6.173482537E-1,6.771687984E0,7.649854183E0
1.542496525E0,-6.245267391E-1,6.793223381E0,7.633104324E0
1.544907567E0,-6.245267391E-1,6.795616150E0,7.606783390E0
1.547318609E0,-6.317051649E-1,6.786045074E0,7.566105366E0
1.549729598E0,-6.173482537E-1,6.766902447E0,7.530212879E0
1.552140640E0,-5.982056856E-1,6.764509678E0,7.501499176E0
1.554551630E0,-6.077769399E-1,6.750152588E0,7.482356548E0
1.556962671E0,-6.101697683E-1,6.747759819E0,7.475177765E0
1.559373661E0,-6.197410822E-1,6.728617191E0,7.467999458E0
1.561784702E0,-6.029912829E-1,6.711867332E0,7.475177765E0
1.564195692E0,-5.814558864E-1,6.704689026E0,7.456035137E0
1.566606734E0,-5.647061467E-1,6.685546398E0,7.422535896E0
1.569017775E0,-5.407779217E-1,6.671189308E0,7.393822193E0
1.571428765E0,-5.048855543E-1,6.668796539E0,7.369893551E0
1.573839807E0,-4.953143001E-1,6.656832695E0,7.353144169E0
1.576250796E0,-4.761717021E-1,6.637690067E0,7.350750923E0
1.578661838E0,-4.666004181E-1,6.611369133E0,7.345965385E0
1.581072880E0,-4.761717021E-1,6.613761902E0,7.350750923E0
1.583483869E0,-4.761717021E-1,6.616154671E0,7.345965385E0
1.585894911E0,-4.953143001E-1,6.611369133E0,7.353144169E0
1.588305900E0,-5.312066078E-1,6.606583118E0,7.379465103E0
1.590716942E0,-5.335994363E-1,6.625725746E0,7.403393269E0
1.593127984E0,-5.359922647E-1,6.649653912E0,7.420143127E0
1.595538973E0,-5.527420044E-1,6.649653912E0,7.436892986E0
1.597950015E0,-5.551348329E-1,6.647261143E0,7.448856831E0
1.600361005E0,-5.766702294E-1,6.644868374E0,7.446464062E0
1.602772046E0,-5.766702294E-1,6.671189308E0,7.448856831E0
1.605183036E0,-5.790630579E-1,6.668796539E0,7.439285755E0
1.607594077E0,-5.766702294E-1,6.666403770E0,7.432106972E0
1.610005067E0,-5.766702294E-1,6.687939167E0,7.427321434E0
1.612416109E0,-5.886343718E-1,6.707081795E0,7.415357590E0
1.614827150E0,-6.149554253E-1,6.702296257E0,7.408178806E0
1.617238140E0,-6.173482537E-1,6.699903488E0,7.424928665E0
1.619649182E0,-6.364908218E-1,6.687939167E0,7.429714203E0
1.622060223E0,-6.364908218E-1,6.685546398E0,7.420143127E0
1.624471213E0,-6.269195080E-1,6.709474564E0,7.415357590E0
1.626882255E0,-6.269195080E-1,6.714260101E0,7.386643410E0
1.629293244E0,-6.101697683E-1,6.697510719E0,7.377072334E0
1.631704286E0,-6.101697683E-1,6.707081795E0,7.377072334E0
1.634115275E0,-6.005984545E-1,6.709474564E0,7.386643410E0
1.636526317E0,-6.077769399E-1,6.690331936E0,7.393822193E0
1.638937359E0,-5.934200287E-1,6.671189308E0,7.412964344E0
1.641348348E0,-5.862415433E-1,6.666403770E0,7.436892986E0
1.643759390E0,-5.958128572E-1,6.668796539E0,7.436892986E0
1.646170380E0,-5.814558864E-1,6.666403770E0,7.460821152E0
1.648581421E0,-5.838487148E-1,6.673582554E0,7.470392227E0
1.650992411E0,-5.718846321E-1,6.675975323E0,7.484749317E0
1.653403452E0,-5.718846321E-1,6.668796539E0,7.479963779E0
1.655814494E0,-5.647061467E-1,6.666403770E0,7.496713161E0
1.658225484E0,-5.527420044E-1,6.666403770E0,7.501499176E0
1.660636525E0,-5.431707501E-1,6.664011002E0,7.508677483E0
1.663047515E0,-5.455635786E-1,6.644868374E0,7.491927624E0
1.665458557E0,-5.312066078E-1,6.635297298E0,7.484749317E0
1.667869546E0,-5.024927258E-1,6.620940208E0,7.470392227E0
1.670280588E0,-4.977070987E-1,6.604190350E0,7.453642368E0
1.672691630E0,-4.953143001E-1,6.587440968E0,7.432106972E0
1.675102619E0,-4.977070987E-1,6.573083878E0,7.412964344E0
1.677513661E0,-5.048855543E-1,6.575476646E0,7.393822193E0
1.679924650E0,-5.240281820E-1,6.594619274E0,7.377072334E0
1.682335692E0,-5.407779217E-1,6.592226505E0,7.374679565E0
1.684746734E0,-5.575276613E-1,6.587440968E0,7.372286797E0
1.687157723E0,-6.005984545E-1,6.582654953E0,7.365108013E0
1.689568765E0,-6.197410822E-1,6.589833736E0,7.355536938E0
1.691979755E0,-6.269195080E-1,6.582654953E0,7.362715244E0
1.694390796E0,-6.532405615E-1,6.601797581E0,7.360322475E0
1.696801786E0,-6.675975323E-1,6.618547440E0,7.336394310E0
1.699212827E0,-6.843472719E-1,6.642475605E0,7.343572617E0
1.701623869E0,-7.010970116E-1,6.652047157E0,7.353144169E0
1.704034859E0,-7.202396393E-1,6.678368092E0,7.374679565E0
1.706445900E0,-7.345965505E-1,6.699903488E0,7.386643410E0
1.708856890E0,-7.441678643E-1,6.702296257E0,7.422535896E0
1.711267932E0,-7.465606928E-1,6.721438885E0,7.427321434E0
1.713678973E0,-7.513462901E-1,6.728617191E0,7.456035137E0
1.716089963E0,-7.202396393E-1,6.752545357E0,7.475177765E0
1.718501005E0,-7.058826685E-1,6.783652306E0,7.489534855E0
1.720911994E0,-6.939185858E-1,6.802794933E0,7.489534855E0
1.723323036E0,-6.747759581E-1,6.812366009E0,7.496713161E0
1.725734025E0,-6.843472719E-1,6.821937561E0,7.501499176E0
1.728145067E0,-6.939185858E-1,6.843472958E0,7.501499176E0
1.730556057E0,-6.987041831E-1,6.841079712E0,7.487142086E0
1.732967098E0,-7.010970116E-1,6.824330330E0,7.496713161E0
1.735378140E0,-7.058826685E-1,6.809973240E0,7.487142086E0
1.737789130E0,-7.130611539E-1,6.819544315E0,7.470392227E0
1.740200171E0,-7.202396393E-1,6.790830612E0,7.451249599E0
1.742611161E0,-7.298108935E-1,6.778866768E0,7.424928665E0
1.745022202E0,-7.322037220E-1,6.771687984E0,7.396214962E0
1.747433244E0,-7.130611539E-1,6.754938126E0,7.357929707E0
1.749844234E0,-7.130611539E-1,6.740581512E0,7.329215527E0
1.752255275E0,-7.154539824E-1,6.726224422E0,7.310073376E0
1.754666265E0,-7.010970116E-1,6.745367050E0,7.295716286E0
1.757077307E0,-6.723831892E-1,6.742974281E0,7.317251682E0
1.759488296E0,-6.293123364E-1,6.714260101E0,7.329215527E0
1.761899338E0,-5.814558864E-1,6.687939167E0,7.348358154E0
1.764310380E0,-5.407779217E-1,6.678368092E0,7.377072334E0
1.766721369E0,-4.929214716E-1,6.659225464E0,7.384250641E0
1.769132411E0,-4.809573591E-1,6.647261143E0,7.386643410E0
1.771543400E0,-4.594219327E-1,6.652047157E0,7.398607731E0
1.773954442E0,-4.307080805E-1,6.654439926E0,7.403393269E0
1.776365484E0,-4.331009090E-1,6.666403770E0,7.422535896E0
1.778776473E0,-4.522434771E-1,6.664011002E0,7.410571575E0
1.781187515E0,-4.594219327E-1,6.668796539E0,7.405786037E0
1.783598505E0,-4.666004181E-1,6.680760860E0,7.415357590E0
1.786009546E0,-4.713860750E-1,6.671189308E0,7.427321434E0
1.788420536E0,-4.761717021E-1,6.671189308E0,7.439285755E0
1.790831577E0,-4.857429862E-1,6.673582554E0,7.451249599E0
1.793242619E0,-4.905286431E-1,6.675975323E0,7.453642368E0
1.795653609E0,-5.168496966E-1,6.678368092E0,7.448856831E0
1.798064650E0,-5.383850932E-1,6.680760860E0,7.456035137E0
1.800475640E0,-5.407779217E-1,6.687939167E0,7.453642368E0
1.802886682E0,-5.623133183E-1,6.695117950E0,7.453642368E0
1.805297671E0,-5.790630579E-1,6.695117950E0,7.456035137E0
1.807708713E0,-5.910272002E-1,6.687939167E0,7.448856831E0
1.810119755E0,-5.862415433E-1,6.668796539E0,7.451249599E0
1.812530744E0,-5.814558864E-1,6.675975323E0,7.446464062E0
1.814941786E0,-5.742774606E-1,6.666403770E0,7.429714203E0
1.817352775E0,-5.479564071E-1,6.661618233E0,7.403393269E0
1.819763817E0,-5.288137794E-1,6.664011002E0,7.391428947E0
1.822174859E0,-5.216353536E-1,6.661618233E0,7.381857872E0
1.824585848E0,-5.168496966E-1,6.659225464E0,7.403393269E0
1.826996890E0,-5.168496966E-1,6.654439926E0,7.393822193E0
1.829407880E0,-5.072783828E-1,6.637690067E0,7.391428947E0
1.831818921E0,-4.977070987E-1,6.632904530E0,7.372286797E0
1.834229911E0,-5.048855543E-1,6.642475605E0,7.355536938E0
1.836640952E0,-5.000999570E-1,6.625725746E0,7.341179848E0
1.839051994E0,-4.833501875E-1,6.632904530E0,7.307680130E0
1.841462984E0,-4.905286431E-1,6.616154671E0,7.290930748E0
1.843874025E0,-4.737788737E-1,6.613761902E0,7.295716286E0
1.846285015E0,-4.354937077E-1,6.611369133E0,7.319644451E0
1.848696057E0,-4.402793646E-1,6.592226505E0,7.326822758E0
1.851107098E0,-4.235295951E-1,6.589833736E0,7.336394310E0
1.853518088E0,-4.163511395E-1,6.597012043E0,7.338787079E0
1.855929130E0,-3.972085714E-1,6.608976364E0,7.355536938E0
1.858340119E0,-3.948157430E-1,6.618547440E0,7.365108013E0
1.860751161E0,-3.972085714E-1,6.659225464E0,7.384250641E0
1.863162202E0,-4.259224236E-1,6.678368092E0,7.391428947E0
1.865573192E0,-4.546363056E-1,6.695117950E0,7.415357590E0
1.867984234E0,-4.809573591E-1,6.719046116E0,7.439285755E0
1.870395223E0,-5.048855543E-1,6.738188744E0,7.465606689E0
1.872806265E0,-5.240281820E-1,6.757331371E0,7.489534855E0
1.875217255E0,-5.694918036E-1,6.771687984E0,7.525427341E0
1.877628296E0,-5.575276613E-1,6.795616150E0,7.537391186E0
1.880039286E0,-5.599204898E-1,6.802794933E0,7.551748276E0
1.882450327E0,-5.527420044E-1,6.817151546E0,7.573283672E0
1.884861369E0,-5.766702294E-1,6.838686943E0,7.561319351E0
1.887272359E0,-5.670989752E-1,6.831508636E0,7.554141045E0
1.889683400E0,-5.814558864E-1,6.841079712E0,7.525427341E0
1.892094390E0,-5.838487148E-1,6.831508636E0,7.518248558E0
1.894505432E0,-6.053841114E-1,6.831508636E0,7.489534855E0
1.896916421E0,-6.077769399E-1,6.807580471E0,7.477570534E0
1.899327463E0,-6.125625968E-1,6.805187702E0,7.456035137E0
1.901738505E0,-6.245267391E-1,6.778866768E0,7.434499741E0
1.904149494E0,-6.317051649E-1,6.766902447E0,7.410571575E0
1.906560536E0,-6.221339107E-1,6.742974281E0,7.386643410E0
1.908971525E0,-6.293123364E-1,6.735795975E0,7.338787079E0
1.911382567E0,-6.197410822E-1,6.726224422E0,7.317251682E0
1.913793609E0,-6.532405615E-1,6.721438885E0,7.300501823E0
1.916204598E0,-6.675975323E-1,6.738188744E0,7.302894592E0
1.918615640E0,-6.771687865E-1,6.711867332E0,7.302894592E0
1.921026630E0,-7.106683254E-1,6.709474564E0,7.329215527E0
1.923437671E0,-7.130611539E-1,6.704689026E0,7.348358154E0
1.925848713E0,-7.322037220E-1,6.716653347E0,7.372286797E0
1.928259702E0,-7.345965505E-1,6.714260101E0,7.379465103E0
1.930670744E0,-7.657032609E-1,6.719046116E0,7.384250641E0
1.933081734E0,-7.824530005E-1,6.740581512E0,7.377072334E0
1.935492775E0,-8.087740541E-1,6.754938126E0,7.367500782E0
1.937903765E0,-8.255237937E-1,6.752545357E0,7.396214962E0
1.940314807E0,-8.279166222E-1,6.754938126E0,7.427321434E0
1.942725848E0,-7.992027402E-1,6.766902447E0,7.456035137E0
1.945136838E0,-7.944171429E-1,6.759724140E0,7.482356548E0
1.947547880E0,-7.776673436E-1,6.769295216E0,7.494320393E0
1.949958869E0,-7.513462901E-1,6.766902447E0,7.489534855E0
1.952369911E0,-7.178468108E-1,6.774080753E0,7.494320393E0
1.954780900E0,-7.034898400E-1,6.776473522E0,7.513463020E0
1.957191942E0,-6.987041831E-1,6.764509678E0,7.523034573E0
1.959602984E0,-7.010970116E-1,6.752545357E0,7.532605648E0
1.962013973E0,-6.891329288E-1,6.745367050E0,7.544569969E0
1.964425015E0,-6.723831892E-1,6.723831654E0,7.534998417E0
1.966836005E0,-6.628118753E-1,6.714260101E0,7.539783955E0
1.969247046E0,-6.628118753E-1,6.709474564E0,7.523034573E0
1.971658088E0,-6.580262184E-1,6.702296257E0,7.503891945E0
1.974069077E0,-6.460621357E-1,6.697510719E0,7.472784996E0
1.976480119E0,-6.604190469E-1,6.675975323E0,7.448856831E0
1.978891109E0,-6.436693072E-1,6.675975323E0,7.434499741E0
1.981302150E0,-6.317051649E-1,6.673582554E0,7.432106972E0
1.983713140E0,-6.269195080E-1,6.652047157E0,7.436892986E0
1.986124182E0,-6.173482537E-1,6.635297298E0,7.446464062E0
1.988535223E0,-6.149554253E-1,6.656832695E0,7.487142086E0
1.990946213E0,-6.101697683E-1,6.649653912E0,7.451249599E0
1.993357255E0,-5.958128572E-1,6.644868374E0,7.381857872E0
1.995768244E0,-5.910272002E-1,6.659225464E0,7.350750923E0
1.998179286E0,-5.742774606E-1,6.637690067E0,7.329215527E0
2.000590275E0,-6.005984545E-1,6.611369133E0,7.329215527E0
2.003001317E0,-6.197410822E-1,6.594619274E0,7.331608772E0
2.005412359E0,-6.029912829E-1,6.585047722E0,7.334001541E0
2.007823348E0,-6.077769399E-1,6.575476646E0,7.305287361E0
2.010234390E0,-6.029912829E-1,6.573083878E0,7.286144733E0
2.012645380E0,-5.718846321E-1,6.580262184E0,7.278966427E0
2.015056421E0,-5.359922647E-1,6.601797581E0,7.274180889E0
2.017467463E0,-5.335994363E-1,6.589833736E0,7.286144733E0
2.019878452E0,-5.312066078E-1,6.575476646E0,7.283751965E0
2.022289494E0,-5.407779217E-1,6.606583118E0,7.312466145E0
2.024700484E0,-5.431707501E-1,6.606583118E0,7.345965385E0
2.027111525E0,-5.455635786E-1,6.613761902E0,7.372286797E0
2.029522515E0,-5.335994363E-1,6.613761902E0,7.377072334E0
2.031933557E0,-5.359922647E-1,6.611369133E0,7.365108013E0
2.034344598E0,-5.407779217E-1,6.628118515E0,7.350750923E0
2.036755588E0,-5.503492355E-1,6.649653912E0,7.348358154E0
2.039166630E0,-5.479564071E-1,6.654439926E0,7.341179848E0
2.041577619E0,-5.862415433E-1,6.680760860E0,7.355536938E0
2.043988661E0,-6.125625968E-1,6.678368092E0,7.362715244E0
2.046399702E0,-6.101697683E-1,6.680760860E0,7.365108013E0
2.048810692E0,-6.269195080E-1,6.695117950E0,7.372286797E0
2.051221734E0,-6.436693072E-1,6.721438885E0,7.381857872E0
2.053632723E0,-6.388836503E-1,6.750152588E0,7.381857872E0
2.056043765E0,-6.508477330E-1,6.728617191E0,7.389036179E0
2.058454755E0,-6.412764788E-1,6.728617191E0,7.396214962E0
2.060865796E0,-6.269195080E-1,6.723831654E0,7.401000500E0
2.063276838E0,-6.269195080E-1,6.723831654E0,7.410571575E0
2.065687827E0,-6.340979934E-1,6.721438885E0,7.398607731E0
2.068098869E0,-6.269195080E-1,6.719046116E0,7.401000500E0
2.070509859E0,-6.269195080E-1,6.714260101E0,7.386643410E0
2.072920900E0,-6.125625968E-1,6.719046116E0,7.389036179E0
2.075331890E0,-6.077769399E-1,6.731009960E0,7.415357590E0
2.077742932E0,-6.173482537E-1,6.728617191E0,7.424928665E0
2.080153973E0,-6.293123364E-1,6.733402729E0,7.432106972E0
2.082564963E0,-6.388836503E-1,6.716653347E0,7.434499741E0
2.084976005E0,-6.412764788E-1,6.731009960E0,7.458428383E0
2.087386994E0,-6.317051649E-1,6.726224422E0,7.463213921E0
2.089798036E0,-6.221339107E-1,6.754938126E0,7.491927624E0
2.092209077E0,-6.101697683E-1,6.769295216E0,7.491927624E0
2.094620067E0,-6.364908218E-1,6.764509678E0,7.496713161E0
2.097031109E0,-6.197410822E-1,6.759724140E0,7.491927624E0
2.099442098E0,-6.269195080E-1,6.771687984E0,7.479963779E0
2.101853140E0,-6.436693072E-1,6.764509678E0,7.465606689E0
2.104264130E0,-6.412764788E-1,6.783652306E0,7.451249599E0
2.106675171E0,-6.388836503E-1,6.783652306E0,7.427321434E0
2.109086213E0,-6.532405615E-1,6.790830612E0,7.408178806E0
2.111497202E0,-6.699903607E-1,6.795616150E0,7.405786037E0
2.113908244E0,-6.699903607E-1,6.798008919E0,7.405786037E0
2.116319234E0,-6.795616150E-1,6.807580471E0,7.386643410E0
2.118730275E0,-6.843472719E-1,6.790830612E0,7.367500782E0
2.121141265E0,-6.675975323E-1,6.793223381E0,7.360322475E0
2.123552307E0,-6.771687865E-1,6.788437843E0,7.348358154E0
2.125963348E0,-6.675975323E-1,6.788437843E0,7.317251682E0
2.128374338E0,-6.843472719E-1,6.790830612E0,7.305287361E0
2.130785380E0,-6.795616150E-1,6.798008919E0,7.300501823E0
2.133196369E0,-6.604190469E-1,6.786045074E0,7.305287361E0
2.135607411E0,-6.675975323E-1,6.776473522E0,7.307680130E0
2.138018452E0,-6.628118753E-1,6.764509678E0,7.307680130E0
2.140429442E0,-6.293123364E-1,6.754938126E0,7.310073376E0
2.142840484E0,-6.364908218E-1,6.740581512E0,7.307680130E0
2.145251473E0,-6.293123364E-1,6.745367050E0,7.295716286E0
2.147662515E0,-6.221339107E-1,6.733402729E0,7.281359196E0
2.150073505E0,-6.245267391E-1,6.745367050E0,7.264609337E0
2.152484546E0,-6.364908218E-1,6.738188744E0,7.267002583E0
2.154895588E0,-6.508477330E-1,6.754938126E0,7.276573658E0
2.157306577E0,-6.747759581E-1,6.762116909E0,7.290930748E0
2.159717619E0,-7.082754970E-1,6.781259537E0,7.314858913E0
2.162128609E0,-7.178468108E-1,6.781259537E0,7.362715244E0
2.164539650E0,-7.322037220E-1,6.795616150E0,7.410571575E0
2.166950692E0,-7.178468108E-1,6.821937561E0,7.432106972E0
2.169361682E0,-6.891329288E-1,6.824330330E0,7.432106972E0
2.171772723E0,-6.723831892E-1,6.848258495E0,7.456035137E0
2.174183713E0,-6.628118753E-1,6.841079712E0,7.482356548E0
2.176594755E0,-6.508477330E-1,6.845865726E0,7.489534855E0
2.179005744E0,-6.340979934E-1,6.838686943E0,7.491927624E0
2.181416786E0,-6.460621357E-1,6.809973240E0,7.482356548E0
2.183827775E0,-6.484549642E-1,6.793223381E0,7.467999458E0
2.186238817E0,-6.484549642E-1,6.783652306E0,7.472784996E0
2.188649859E0,-6.221339107E-1,6.771687984E0,7.448856831E0
2.191060848E0,-6.269195080E-1,6.752545357E0,7.427321434E0
2.193471890E0,-6.221339107E-1,6.745367050E0,7.417750359E0
2.195882880E0,-6.269195080E-1,6.757331371E0,7.398607731E0
2.198293921E0,-6.364908218E-1,6.752545357E0,7.412964344E0
2.200704963E0,-6.412764788E-1,6.754938126E0,7.410571575E0
2.203115952E0,-6.556333899E-1,6.752545357E0,7.408178806E0
2.205526994E0,-6.675975323E-1,6.754938126E0,7.415357590E0
2.207937984E0,-6.939185858E-1,6.754938126E0,7.429714203E0
2.210349025E0,-6.867401004E-1,6.731009960E0,7.410571575E0
2.212760067E0,-6.723831892E-1,6.728617191E0,7.396214962E0
2.215171057E0,-6.484549642E-1,6.716653347E0,7.367500782E0
2.217582098E0,-6.245267391E-1,6.707081795E0,7.355536938E0
2.219993088E0,-6.317051649E-1,6.716653347E0,7.336394310E0
2.222404130E0,-6.436693072E-1,6.702296257E0,7.343572617E0
2.224815119E0,-6.269195080E-1,6.692724705E0,7.336394310E0
2.227226161E0,-6.293123364E-1,6.671189308E0,7.350750923E0
2.229637202E0,-6.029912829E-1,6.678368092E0,7.362715244E0
2.232048192E0,-5.694918036E-1,6.661618233E0,7.369893551E0
2.234459234E0,-5.431707501E-1,6.652047157E0,7.360322475E0
2.236870223E0,-5.000999570E-1,6.637690067E0,7.348358154E0
2.239281265E0,-4.809573591E-1,6.632904530E0,7.348358154E0
2.241692255E0,-4.666004181E-1,6.632904530E0,7.345965385E0
2.244103296E0,-4.689932466E-1,6.630511761E0,7.353144169E0
2.246514338E0,-4.881358147E-1,6.632904530E0,7.360322475E0
2.248925327E0,-5.096712112E-1,6.630511761E0,7.350750923E0
2.251336369E0,-5.455635786E-1,6.647261143E0,7.348358154E0
2.253747359E0,-5.551348329E-1,6.649653912E0,7.357929707E0
2.256158400E0,-5.886343718E-1,6.661618233E0,7.391428947E0
2.258569442E0,-6.005984545E-1,6.668796539E0,7.412964344E0
2.260980432E0,-6.149554253E-1,6.668796539E0,7.422535896E0
2.263391473E0,-6.005984545E-1,6.685546398E0,7.432106972E0
2.265802463E0,-6.077769399E-1,6.690331936E0,7.444071293E0
2.268213505E0,-6.101697683E-1,6.695117950E0,7.446464062E0
2.270624494E0,-6.197410822E-1,6.707081795E0,7.465606689E0
2.273035536E0,-6.460621357E-1,6.702296257E0,7.475177765E0
2.275446577E0,-6.580262184E-1,6.680760860E0,7.477570534E0
2.277857567E0,-6.699903607E-1,6.671189308E0,7.477570534E0
2.280268609E0,-6.580262184E-1,6.659225464E0,7.489534855E0
2.282679598E0,-6.460621357E-1,6.642475605E0,7.487142086E0
2.285090640E0,-6.340979934E-1,6.632904530E0,7.472784996E0
2.287501682E0,-6.245267391E-1,6.628118515E0,7.470392227E0
2.289912671E0,-6.317051649E-1,6.599404812E0,7.463213921E0
2.292323713E0,-6.293123364E-1,6.599404812E0,7.479963779E0
2.294734702E0,-6.125625968E-1,6.558726788E0,7.470392227E0
2.297145744E0,-5.910272002E-1,6.527620316E0,7.453642368E0
2.299556734E0,-5.647061467E-1,6.496513367E0,7.434499741E0
2.301967775E0,-5.431707501E-1,6.472585201E0,7.403393269E0
2.304378817E0,-5.000999570E-1,6.436692715E0,7.367500782E0
2.306789807E0,-4.642075896E-1,6.407979012E0,7.343572617E0
2.309200848E0,-4.426721931E-1,6.398407936E0,7.307680130E0
2.311611838E0,-4.211367965E-1,6.364908218E0,7.267002583E0
2.314022880E0,-3.924229145E-1,6.326622963E0,7.252645493E0
2.316433869E0,-3.708875179E-1,6.293123722E0,7.250252724E0
2.318844911E0,-3.613162339E-1,6.257231236E0,7.267002583E0
2.321255952E0,-3.278166950E-1,6.230910301E0,7.250252724E0
2.323666942E0,-3.014956415E-1,6.214160442E0,7.223931789E0
2.326077984E0,-2.584248483E-1,6.195017815E0,7.238288403E0
2.328488973E0,-2.225325108E-1,6.192625046E0,7.178467751E0
2.330900015E0,-2.201396823E-1,6.202196121E0,7.140182972E0
2.333311005E0,-2.321037948E-1,6.199803352E0,7.164111137E0
2.335722046E0,-2.297109663E-1,6.192625046E0,7.259823799E0
2.338133088E0,-2.033899277E-1,6.178267956E0,7.312466145E0
2.340544077E0,-1.794617027E-1,6.204588890E0,7.355536938E0
2.342955119E0,-2.033899277E-1,6.221338749E0,7.398607731E0
2.345366109E0,-2.440679073E-1,6.221338749E0,7.372286797E0
2.347777150E0,-2.608176768E-1,6.185446739E0,7.302894592E0
2.350188192E0,-2.919243574E-1,6.183053493E0,7.240681171E0
2.352599182E0,-3.876372576E-1,6.195017815E0,7.106683254E0
2.355010223E0,-5.048855543E-1,6.242874146E0,6.994220734E0
2.357421213E0,-6.101697683E-1,6.295516491E0,6.982256413E0
2.359832255E0,-7.226324677E-1,6.350551128E0,7.054041386E0
2.362243296E0,-7.944171429E-1,6.381658077E0,7.130611420E0
2.364654286E0,-7.489534616E-1,6.427121639E0,7.123433113E0
2.367065327E0,-8.063812256E-1,6.381658077E0,7.293323517E0
2.369476317E0,-1.062413216E0,6.108876228E0,7.968099594E0
2.371887359E0,-1.304088354E0,5.690132141E0,8.729017258E0
2.374298348E0,-1.483550072E0,4.780859470E0,9.939785004E0
2.376709390E0,-1.404586911E0,4.223331928E0,1.094955635E1
2.379120432E0,-1.237089276E0,4.055834293E0,1.082752228E1
2.381531421E0,-9.212366939E-1,4.144368649E0,1.010488987E1
2.383942463E0,-5.694918036E-1,4.345366001E0,9.198010445E0
2.386353452E0,-8.733802438E-1,4.429114819E0,8.331808090E0
2.388764494E0,-9.690931439E-1,4.292723656E0,7.214360237E0
2.391175484E0,-7.848458290E-1,4.060619831E0,6.362515450E0
2.393586525E0,-7.154539824E-1,3.527020693E0,5.436492920E0
2.395997567E0,-6.340979934E-1,3.311666489E0,4.991427898E0
2.398408557E0,-4.187439680E-1,3.144168854E0,4.766502857E0
2.400819598E0,-2.009970993E-1,2.447857618E0,4.907679081E0
2.403230588E0,-1.148554832E-1,2.062613010E0,4.941178799E0
2.405641630E0,-8.135596663E-2,1.880758643E0,5.216353416E0
2.408052619E0,-6.699903309E-2,1.797009826E0,5.568098068E0
2.410463661E0,-5.024927482E-2,1.794616938E0,5.757131100E0
2.412874702E0,-3.110669367E-2,1.818545222E0,5.860022545E0
2.415285692E0,-2.392822644E-3,1.844866276E0,5.977271080E0
2.417696734E0,2.392822644E-3,1.859223247E0,6.089733601E0
2.420107723E0,1.196411345E-2,1.873580098E0,6.202196121E0
2.422518765E0,1.196411345E-2,1.902294040E0,6.309873104E0
2.424929755E0,3.349951655E-2,1.907079697E0,6.419943333E0
2.427340796E0,5.503492057E-2,1.933400750E0,6.532405853E0
2.429751838E0,5.503492057E-2,1.935793519E0,6.625725746E0
2.432162827E0,7.657032460E-2,1.940579176E0,6.738188744E0
2.434573869E0,9.092725813E-2,1.950150490E0,6.826723099E0
2.436984911E0,1.052841991E-1,1.938186288E0,6.922435760E0
2.439395900E0,1.124626622E-1,1.942971945E0,7.006184578E0
2.441806942E0,1.244267747E-1,1.914258122E0,7.094718933E0
2.444217932E0,1.148554832E-1,1.890329838E0,7.190432072E0
2.446628973E0,1.148554832E-1,1.875972986E0,7.252645493E0
2.449039963E0,1.004985496E-1,1.830509305E0,7.322037220E0
2.451451005E0,1.052841991E-1,1.804188251E0,7.377072334E0
2.453862046E0,9.332008660E-2,1.765903115E0,7.439285755E0
2.456273036E0,7.417750359E-2,1.730010748E0,7.489534855E0
2.458684077E0,6.939185411E-2,1.677368641E0,7.523034573E0
2.461095067E0,4.785645381E-2,1.622333765E0,7.546962738E0
2.463506109E0,3.828516230E-2,1.564906001E0,7.556533813E0
2.465917098E0,2.632104978E-2,1.512263894E0,7.556533813E0
2.468328140E0,1.914258115E-2,1.447657704E0,7.580461979E0
2.470739182E0,-1.914258115E-2,1.402194023E0,7.587640762E0
2.473150171E0,-4.307080805E-2,1.335195065E0,7.592426300E0
2.475561213E0,-6.460621208E-2,1.253839016E0,7.575676441E0
2.477972202E0,-7.178468257E-2,1.194018483E0,7.570890903E0
2.480383244E0,-1.004985496E-1,1.129412293E0,7.573283672E0
2.482794286E0,-1.363908947E-1,1.057627559E0,7.580461979E0
2.485205275E0,-1.651047617E-1,9.882357717E-1,7.573283672E0
2.487616317E0,-1.962114573E-1,9.403793216E-1,7.585247993E0
2.490027307E0,-2.392822653E-1,8.590233326E-1,7.592426300E0
2.492438348E0,-2.560320199E-1,7.992027402E-1,7.628318787E0
2.494849338E0,-2.727817893E-1,7.465606928E-1,7.666603565E0
2.497260380E0,-3.158525825E-1,7.010970116E-1,7.716853142E0
2.499671421E0,-3.397808075E-1,6.412764788E-1,7.791030407E0
2.502082411E0,-3.708875179E-1,5.958128572E-1,7.867600918E0
2.504493452E0,-4.019941986E-1,5.431707501E-1,7.936992645E0
2.506904442E0,-4.354937077E-1,5.000999570E-1,8.044670105E0
2.509315484E0,-4.546363056E-1,4.546363056E-1,8.173882484E0
2.511726473E0,-4.737788737E-1,4.091726840E-1,8.283951759E0
2.514137515E0,-5.168496966E-1,3.565305769E-1,8.427521706E0
2.516548557E0,-5.647061467E-1,3.158525825E-1,8.580661774E0
2.518959546E0,-5.838487148E-1,2.703889608E-1,8.738588333E0
2.521370588E0,-6.149554253E-1,2.368894368E-1,8.903693199E0
2.523781577E0,-6.604190469E-1,1.866401732E-1,9.064012527E0
2.526192619E0,-6.843472719E-1,1.411765367E-1,9.245866776E0
2.528603661E0,-7.345965505E-1,1.076770201E-1,9.422935486E0
2.531014650E0,-7.537391186E-1,5.982056633E-2,9.616754532E0
2.533425692E0,-8.087740541E-1,1.674975827E-2,9.779465675E0
2.535836682E0,-8.327022791E-1,-2.871387079E-2,9.958928108E0
2.538247723E0,-8.542376757E-1,-7.896314561E-2,1.013360405E1
2.540658713E0,-8.733802438E-1,-1.100698411E-1,1.029631615E1
2.543069755E0,-8.949156404E-1,-1.603191197E-1,1.045902824E1
2.545480796E0,-9.284151793E-1,-2.057827413E-1,1.063848972E1
2.547891786E0,-9.499505758E-1,-2.799602449E-1,1.079641533E1
2.550302827E0,-9.714859724E-1,-3.230310678E-1,1.093759251E1
2.552713817E0,-9.762716293E-1,-3.541377485E-1,1.107398319E1
2.555124859E0,-9.906286001E-1,-3.948157430E-1,1.121276665E1
2.557535848E0,-1.000199914E0,-4.235295951E-1,1.133719349E1
2.559946890E0,-1.021735311E0,-4.737788737E-1,1.146640587E1
2.562357932E0,-1.009771109E0,-5.240281820E-1,1.157886887E1
2.564768921E0,-1.014556766E0,-5.527420044E-1,1.167697430E1
2.567179963E0,-1.012163997E0,-5.886343718E-1,1.175354481E1
2.569590952E0,-1.000199914E0,-6.269195080E-1,1.182054424E1
2.572001994E0,-1.000199914E0,-6.652047038E-1,1.188514996E1
2.574413036E0,-9.858429432E-1,-7.010970116E-1,1.193061352E1
2.576824025E0,-9.690931439E-1,-7.369893789E-1,1.195454216E1
2.579235067E0,-9.499505758E-1,-7.680960894E-1,1.199282742E1
2.581646057E0,-9.379864931E-1,-7.944171429E-1,1.200239849E1
2.584057098E0,-9.116654396E-1,-8.207381964E-1,1.200957680E1
2.586468140E0,-8.973084688E-1,-8.662018180E-1,1.200957680E1
2.588879130E0,-8.757730722E-1,-8.949156404E-1,1.201196957E1
2.591290171E0,-8.446664214E-1,-9.164510965E-1,1.200000572E1
2.593701161E0,-8.303094506E-1,-9.188438654E-1,1.198086262E1
2.596112202E0,-7.872386575E-1,-9.499505758E-1,1.196889877E1
2.598523192E0,-7.585247755E-1,-9.810572863E-1,1.196889877E1
2.600934234E0,-7.202396393E-1,-9.954141974E-1,1.196650600E1
2.603345275E0,-6.915257573E-1,-9.930213690E-1,1.194497108E1
2.605756265E0,-6.628118753E-1,-9.978070259E-1,1.194018459E1
2.608167307E0,-6.269195080E-1,-1.026520967E0,1.194257736E1
2.610578296E0,-6.053841114E-1,-1.028913736E0,1.194736385E1
2.612989338E0,-5.527420044E-1,-1.045663476E0,1.195454216E1
2.615400327E0,-5.359922647E-1,-1.050449133E0,1.199522018E1
2.617811369E0,-5.096712112E-1,-1.069591761E0,1.202871990E1
2.620222411E0,-4.809573591E-1,-1.074377418E0,1.206700420E1
2.622633400E0,-4.570291340E-1,-1.081555843E0,1.211725426E1
2.625044442E0,-4.235295951E-1,-1.086341500E0,1.218185997E1
2.627455432E0,-3.900300860E-1,-1.086341500E0,1.224168110E1
2.629866473E0,-3.661018610E-1,-1.100698471E0,1.229671574E1
2.632277515E0,-3.349951804E-1,-1.103091240E0,1.237807178E1
2.634688505E0,-3.206382394E-1,-1.107876897E0,1.245703506E1
2.637099546E0,-2.871387303E-1,-1.115055323E0,1.252881908E1
2.639510536E0,-2.416750938E-1,-1.117448211E0,1.260778236E1
2.641921577E0,-2.297109663E-1,-1.115055323E0,1.268435287E1
2.644332567E0,-2.105683982E-1,-1.119840980E0,1.277288723E1
2.646743609E0,-1.914258152E-1,-1.105484009E0,1.284467220E1
2.649154650E0,-1.674975902E-1,-1.093519926E0,1.292842102E1
2.651565640E0,-1.411765367E-1,-1.086341500E0,1.301934814E1
2.653976682E0,-1.339980662E-1,-1.091127157E0,1.308156109E1
2.656387671E0,-1.196411327E-1,-1.071984529E0,1.314856052E1
2.658798713E0,-9.571290761E-2,-1.055234790E0,1.320838070E1
2.661209755E0,-8.614161611E-2,-1.048056364E0,1.325862980E1
2.663620744E0,-8.853443712E-2,-1.028913736E0,1.329930782E1
2.666031786E0,-7.417750359E-2,-1.009771109E0,1.334237862E1
2.668442775E0,-6.699903309E-2,-1.000199914E0,1.336391449E1
2.670853817E0,-7.417750359E-2,-9.714859724E-1,1.339980698E1
2.673264807E0,-6.939185411E-2,-9.547362328E-1,1.341894913E1
2.675675848E0,-7.178468257E-2,-9.308080077E-1,1.343569946E1
2.678086890E0,-6.699903309E-2,-9.020941257E-1,1.344287777E1
2.680497880E0,-5.982056633E-2,-8.662018180E-1,1.344527054E1
2.682908921E0,-6.939185411E-2,-8.303094506E-1,1.344048500E1
2.685319911E0,-8.614161611E-2,-7.920243144E-1,1.342373466E1
2.687730952E0,-9.810572863E-2,-7.561319470E-1,1.341416359E1
2.690141942E0,-1.028913707E-1,-7.082754970E-1,1.339741421E1
2.692552984E0,-1.196411327E-1,-6.891329288E-1,1.336152172E1
2.694964025E0,-1.483550072E-1,-6.484549642E-1,1.332084370E1
2.697375015E0,-1.770688742E-1,-5.814558864E-1,1.329212952E1
2.699786057E0,-2.081755698E-1,-5.575276613E-1,1.325384426E1
2.702197046E0,-2.440679073E-1,-5.288137794E-1,1.322991657E1
2.704608088E0,-2.703889608E-1,-4.761717021E-1,1.319163132E1
2.707019130E0,-2.823530734E-1,-4.307080805E-1,1.315334606E1
2.709430119E0,-3.254238665E-1,-3.900300860E-1,1.312463188E1
2.711841161E0,-3.661018610E-1,-3.326023519E-1,1.309113312E1
2.714252150E0,-3.924229145E-1,-2.871387303E-1,1.306720448E1
2.716663192E0,-4.307080805E-1,-2.488535494E-1,1.304088306E1
2.719074234E0,-4.642075896E-1,-2.009970993E-1,1.300977707E1
2.721485223E0,-5.024927258E-1,-1.363908947E-1,1.298345566E1
2.723896265E0,-5.312066078E-1,-8.374879509E-2,1.295952702E1
2.726307255E0,-5.670989752E-1,-2.392822690E-2,1.295952702E1
2.728718296E0,-6.101697683E-1,3.349951655E-2,1.295474148E1
2.731129286E0,-6.412764788E-1,7.178468257E-2,1.294756317E1
2.733540327E0,-6.652047038E-1,1.196411327E-1,1.294038486E1
2.735951317E0,-7.178468108E-1,1.627119333E-1,1.291884899E1
2.738362359E0,-7.609176040E-1,2.177468538E-1,1.291884899E1
2.740773400E0,-7.752745152E-1,2.727817893E-1,1.292124271E1
2.743184390E0,-8.231309652E-1,3.158525825E-1,1.291406345E1
2.745595432E0,-8.662018180E-1,3.780659735E-1,1.290449238E1
2.748006421E0,-8.901300430E-1,4.307080805E-1,1.289492130E1
2.750417463E0,-9.188438654E-1,4.809573591E-1,1.288295746E1
2.752828505E0,-9.499505758E-1,5.551348329E-1,1.286859989E1
2.755239494E0,-9.786644578E-1,5.958128572E-1,1.284706497E1
2.757650536E0,-9.978070259E-1,6.508477330E-1,1.282552910E1
2.760061525E0,-1.024128079E0,6.987041831E-1,1.279920864E1
2.762472567E0,-1.026520967E0,7.561319470E-1,1.275135231E1
2.764883609E0,-1.062413216E0,8.135597110E-1,1.272503090E1
2.767294598E0,-1.076770186E0,8.614161611E-1,1.269153118E1
2.769705640E0,-1.076770186E0,9.140582681E-1,1.262453270E1
2.772116630E0,-1.086341500E0,9.619147182E-1,1.256231880E1
2.774527671E0,-1.074377418E0,9.906286001E-1,1.250010586E1
2.776938661E0,-1.062413216E0,1.028913736E0,1.241157150E1
2.779349702E0,-1.055234790E0,1.064806104E0,1.233978653E1
2.781760744E0,-1.062413216E0,1.107876897E0,1.226800156E1
2.784171734E0,-1.033699393E0,1.150947690E0,1.218185997E1
2.786582775E0,-1.028913736E0,1.184447169E0,1.210050392E1
2.788993765E0,-1.000199914E0,1.213161111E0,1.201196957E1
2.791404807E0,-9.834501147E-1,1.222732425E0,1.192104244E1
2.793815796E0,-9.738788009E-1,1.261017561E0,1.179661560E1
2.796226838E0,-9.332008362E-1,1.294517040E0,1.170090294E1
2.798637880E0,-9.212366939E-1,1.318445325E0,1.159801102E1
2.801048869E0,-8.805587292E-1,1.337587833E0,1.148794174E1
2.803459911E0,-8.566305041E-1,1.351944804E0,1.138983536E1
2.805870900E0,-8.303094506E-1,1.368694544E0,1.129651546E1
2.808281942E0,-7.992027402E-1,1.366301775E0,1.118644619E1
2.810692984E0,-7.609176040E-1,1.387837172E0,1.110030460E1
2.813103973E0,-7.226324677E-1,1.406979680E0,1.100698376E1
2.815515015E0,-6.819544435E-1,1.416550994E0,1.092802143E1
2.817926005E0,-6.293123364E-1,1.411765337E0,1.086580753E1
2.820337046E0,-5.910272002E-1,1.418943882E0,1.079641533E1
2.822748036E0,-5.575276613E-1,1.416550994E0,1.073420238E1
2.825159077E0,-5.168496966E-1,1.395015597E0,1.065763187E1
2.827570119E0,-4.881358147E-1,1.402194023E0,1.061216831E1
2.829981109E0,-4.426721931E-1,1.404586911E0,1.056431198E1
2.832392150E0,-3.900300860E-1,1.399801254E0,1.053081226E1
2.834803140E0,-3.613162339E-1,1.397408366E0,1.050209904E1
2.837214182E0,-3.278166950E-1,1.380658627E0,1.047338486E1
2.839625223E0,-3.086741269E-1,1.359123230E0,1.044945621E1
2.842036213E0,-2.823530734E-1,1.359123230E0,1.044467068E1
2.844447255E0,-2.464607358E-1,1.337587833E0,1.043031406E1
2.846858244E0,-2.177468538E-1,1.328016520E0,1.043031406E1
2.849269286E0,-1.746760458E-1,1.313659668E0,1.042552853E1
2.851680275E0,-1.483550072E-1,1.287338614E0,1.041835022E1
2.854091317E0,-1.363908947E-1,1.256231904E0,1.041117096E1
2.856502307E0,-9.810572863E-2,1.225125194E0,1.040638542E1
2.858913348E0,-8.374879509E-2,1.167697430E0,1.041595650E1
2.861324390E0,-7.657032460E-2,1.148554921E0,1.042313576E1
2.863735380E0,-7.657032460E-2,1.115055323E0,1.042313576E1
2.866146421E0,-4.785645381E-2,1.069591761E0,1.041835022E1
2.868557463E0,-4.785645381E-2,1.048056364E0,1.042792130E1
2.870968452E0,-4.307080805E-2,9.930213690E-1,1.043031406E1
2.873379494E0,-2.871387079E-2,9.523434043E-1,1.042313576E1
2.875790484E0,-2.392822690E-2,9.044869542E-1,1.041595650E1
2.878201525E0,-2.392822690E-2,8.542376757E-1,1.042792130E1
2.880612515E0,-3.110669367E-2,8.039883971E-1,1.042313576E1
2.883023557E0,-2.871387079E-2,7.585247755E-1,1.042552853E1
2.885434598E0,-4.546362907E-2,6.939185858E-1,1.042074299E1
2.887845588E0,-5.982056633E-2,6.340979934E-1,1.041117096E1
2.890256630E0,-7.896314561E-2,5.599204898E-1,1.042792130E1
2.892667619E0,-8.135596663E-2,4.977070987E-1,1.043031406E1
2.895078661E0,-7.896314561E-2,4.498506486E-1,1.042074299E1
2.897489650E0,-1.100698411E-1,4.115654826E-1,1.041835022E1
2.899900692E0,-1.435693651E-1,3.613162339E-1,1.042313576E1
2.902311734E0,-1.698904037E-1,3.062812984E-1,1.043509960E1
2.904722723E0,-2.033899277E-1,2.368894368E-1,1.044227791E1
2.907133765E0,-2.225325108E-1,1.818545163E-1,1.045902824E1
2.909544755E0,-2.344966233E-1,9.571290761E-2,1.048534870E1
2.911955796E0,-2.656033039E-1,4.785645381E-2,1.051406288E1
2.914366838E0,-3.110669553E-1,7.178467698E-3,1.054756260E1
2.916777827E0,-3.421736360E-1,-5.264209956E-2,1.056909752E1
2.919188869E0,-3.732803464E-1,-1.124626622E-1,1.060020447E1
2.921599859E0,-3.972085714E-1,-1.698904037E-1,1.065284634E1
2.924010900E0,-4.163511395E-1,-2.033899277E-1,1.070070267E1
2.926421890E0,-4.642075896E-1,-2.608176768E-1,1.074855900E1
2.928832932E0,-5.024927258E-1,-3.206382394E-1,1.080598736E1
2.931243973E0,-5.264210105E-1,-3.637090325E-1,1.086580753E1
2.933654963E0,-5.527420044E-1,-4.235295951E-1,1.092323494E1
2.936066005E0,-5.910272002E-1,-4.689932466E-1,1.098544884E1
2.938476994E0,-6.364908218E-1,-5.168496966E-1,1.104766178E1
2.940888036E0,-6.747759581E-1,-5.742774606E-1,1.112662506E1
2.943299077E0,-6.939185858E-1,-6.173482537E-1,1.118644619E1
2.945710067E0,-7.274180651E-1,-6.652047038E-1,1.125823021E1
2.948121109E0,-7.609176040E-1,-7.202396393E-1,1.130848026E1
2.950532098E0,-7.680960894E-1,-7.704889178E-1,1.137787151E1
2.952943140E0,-7.872386575E-1,-7.968099117E-1,1.144008541E1
2.955354130E0,-8.231309652E-1,-8.327022791E-1,1.149033451E1
2.957765171E0,-8.470591903E-1,-8.757730722E-1,1.154058361E1
2.960176213E0,-8.614161611E-1,-9.092726111E-1,1.158604717E1
2.962587202E0,-8.781659007E-1,-9.667003751E-1,1.162193966E1
2.964998244E0,-8.877372146E-1,-9.954141974E-1,1.163390350E1
2.967409234E0,-9.044869542E-1,-1.031306505E0,1.165543938E1
2.969820275E0,-8.973084688E-1,-1.050449133E0,1.166740322E1
2.972231265E0,-9.188438654E-1,-1.091127157E0,1.167218876E1
2.974642307E0,-9.260223508E-1,-1.127019525E0,1.167218876E1
2.977053348E0,-9.355936646E-1,-1.160519004E0,1.167218876E1
2.979464338E0,-9.355936646E-1,-1.165304661E0,1.165304661E1
2.981875380E0,-9.236295223E-1,-1.191625714E0,1.162672520E1
2.984286369E0,-9.284151793E-1,-1.213161111E0,1.160997581E1
2.986697411E0,-9.284151793E-1,-1.237089276E0,1.155733299E1
2.989108400E0,-9.092726111E-1,-1.265803218E0,1.151426220E1
2.991519442E0,-8.997012973E-1,-1.272981644E0,1.146640587E1
2.993930484E0,-8.901300430E-1,-1.289731383E0,1.140897846E1
2.996341473E0,-8.853443861E-1,-1.301695466E0,1.135872936E1
2.998752515E0,-8.733802438E-1,-1.308874011E0,1.129651546E1
3.001163557E0,-8.614161611E-1,-1.335195065E0,1.123908806E1
3.003574546E0,-8.518448472E-1,-1.339980721E0,1.117926693E1
3.005985588E0,-8.279166222E-1,-1.342373490E0,1.113858986E1
3.008396577E0,-8.159525394E-1,-1.356730461E0,1.108116150E1
3.010807619E0,-7.824530005E-1,-1.363908887E0,1.101894855E1
3.013218609E0,-7.728816867E-1,-1.361516118E0,1.095194912E1
3.015629650E0,-7.298108935E-1,-1.371087432E0,1.089691448E1
3.018040692E0,-7.250252366E-1,-1.385444283E0,1.085862923E1
3.020451682E0,-7.058826685E-1,-1.399801254E0,1.082991505E1
3.022862723E0,-6.819544435E-1,-1.404586911E0,1.078445148E1
3.025273713E0,-6.532405615E-1,-1.402194023E0,1.076530933E1
3.027684755E0,-6.364908218E-1,-1.409372568E0,1.074616623E1
3.030095796E0,-6.245267391E-1,-1.402194023E0,1.071266651E1
3.032506786E0,-6.005984545E-1,-1.404586911E0,1.069352436E1
3.034917827E0,-5.742774606E-1,-1.397408366E0,1.068634605E1
3.037328817E0,-5.527420044E-1,-1.411765337E0,1.066002464E1
3.039739859E0,-5.359922647E-1,-1.430907965E0,1.064088249E1
3.042150848E0,-5.168496966E-1,-1.423729420E0,1.062891865E1
3.044561890E0,-4.857429862E-1,-1.421336651E0,1.063370419E1
3.046972880E0,-4.666004181E-1,-1.423729420E0,1.063131142E1
3.049383921E0,-4.426721931E-1,-1.418943882E0,1.063370419E1
3.051794963E0,-4.163511395E-1,-1.430907965E0,1.064327526E1
3.054205952E0,-3.996013701E-1,-1.464407444E0,1.064327526E1
3.056616994E0,-3.924229145E-1,-1.457229018E0,1.065045357E1
3.059027984E0,-3.780659735E-1,-1.457229018E0,1.065045357E1
3.061439025E0,-3.589234054E-1,-1.450050473E0,1.065045357E1
3.063850067E0,-3.421736360E-1,-1.457229018E0,1.066720295E1
3.066261057E0,-3.230310678E-1,-1.459621787E0,1.066241741E1
3.068672098E0,-2.847459018E-1,-1.442872047E0,1.065523911E1
3.071083088E0,-2.775674164E-1,-1.447657704E0,1.063131142E1
3.073494130E0,-2.464607358E-1,-1.447657704E0,1.061695385E1
3.075905119E0,-2.344966233E-1,-1.430907965E0,1.060259724E1
3.078316161E0,-2.153540403E-1,-1.423729420E0,1.056909752E1
3.080727202E0,-2.057827413E-1,-1.418943882E0,1.054516983E1
3.083138192E0,-1.842473447E-1,-1.430907965E0,1.051167011E1
3.085549234E0,-1.674975902E-1,-1.406979680E0,1.046381378E1
3.087960223E0,-1.483550072E-1,-1.395015597E0,1.043031406E1
3.090371265E0,-1.363908947E-1,-1.390229940E0,1.037767220E1
3.092782307E0,-1.124626622E-1,-1.383051515E0,1.032502937E1
3.095193296E0,-1.052841991E-1,-1.380658627E0,1.027717304E1
3.097604338E0,-9.092725813E-2,-1.378265858E0,1.021496010E1
3.100015327E0,-9.571290761E-2,-1.344766378E0,1.016471100E1
3.102426369E0,-9.810572863E-2,-1.323230863E0,1.009531879E1
3.104837359E0,-8.853443712E-2,-1.304088354E0,1.003549862E1
3.107248400E0,-7.657032460E-2,-1.277767301E0,9.982855797E0
3.109659442E0,-6.460621208E-2,-1.256231904E0,9.930213928E0
3.112070432E0,-6.699903309E-2,-1.253839016E0,9.872786522E0
3.114481473E0,-6.939185411E-2,-1.237089276E0,9.820143700E0
3.116892463E0,-5.982056633E-2,-1.234696507E0,9.777072906E0
3.119303505E0,-4.785645381E-2,-1.208375454E0,9.729216576E0
3.121714494E0,-5.264209956E-2,-1.196411371E0,9.678967476E0
3.124125536E0,-5.503492057E-2,-1.196411371E0,9.640682220E0
3.126536577E0,-7.417750359E-2,-1.170090318E0,9.600004196E0
3.128947567E0,-5.982056633E-2,-1.153340459E0,9.559326172E0
3.131358609E0,-6.699903309E-2,-1.129412293E0,9.518648148E0
3.133769598E0,-8.614161611E-2,-1.107876897E0,9.482755661E0
3.136180640E0,-9.332008660E-2,-1.088734269E0,9.461220741E0
3.138591630E0,-1.100698411E-1,-1.076770186E0,9.463613510E0
3.141002671E0,-1.172483116E-1,-1.079162955E0,9.439684868E0
3.143413713E0,-1.220339537E-1,-1.064806104E0,9.430113792E0
3.145824702E0,-1.268195957E-1,-1.055234790E0,9.434899330E0
3.148235744E0,-1.483550072E-1,-1.033699393E0,9.449256897E0
3.150646786E0,-1.722832322E-1,-1.009771109E0,9.461220741E0
3.153057775E0,-1.866401732E-1,-9.930213690E-1,9.477970123E0
3.155468817E0,-1.866401732E-1,-9.738788009E-1,9.506684303E0
3.157879807E0,-1.914258152E-1,-9.523434043E-1,9.521040916E0
3.160290848E0,-2.177468538E-1,-9.403793216E-1,9.544969559E0
3.162701838E0,-2.560320199E-1,-9.308080077E-1,9.597611427E0
3.165112880E0,-2.703889608E-1,-9.236295223E-1,9.614361763E0
3.167523921E0,-2.871387303E-1,-8.973084688E-1,9.664610863E0
3.169934911E0,-3.110669553E-1,-8.877372146E-1,9.700503349E0
3.172345952E0,-3.302095234E-1,-8.757730722E-1,9.736394882E0
3.174756942E0,-3.397808075E-1,-8.638089895E-1,9.769894600E0
3.177167984E0,-3.565305769E-1,-8.398807645E-1,9.796216011E0
3.179578973E0,-3.852444589E-1,-8.135597110E-1,9.839286804E0
3.181990015E0,-4.187439680E-1,-7.872386575E-1,9.872786522E0
3.184401057E0,-4.354937077E-1,-7.585247755E-1,9.884750366E0
3.186812046E0,-4.546363056E-1,-7.369893789E-1,9.891928673E0
3.189223088E0,-4.833501875E-1,-7.202396393E-1,9.896714211E0
3.191634077E0,-5.048855543E-1,-6.939185858E-1,9.927821159E0
3.194045119E0,-5.144568682E-1,-6.628118753E-1,9.927821159E0
3.196456161E0,-5.312066078E-1,-6.436693072E-1,9.932606697E0
3.198867150E0,-5.599204898E-1,-6.149554253E-1,9.918250084E0
3.201278192E0,-5.886343718E-1,-5.886343718E-1,9.913464546E0
3.203689182E0,-6.101697683E-1,-5.527420044E-1,9.887143135E0
3.206100223E0,-6.340979934E-1,-5.288137794E-1,9.858428955E0
3.208511213E0,-6.556333899E-1,-4.857429862E-1,9.822537422E0
3.210922255E0,-6.747759581E-1,-4.689932466E-1,9.789037704E0
3.213333296E0,-6.747759581E-1,-4.594219327E-1,9.757930756E0
3.215744286E0,-6.843472719E-1,-4.211367965E-1,9.702896118E0
3.218155327E0,-7.082754970E-1,-3.972085714E-1,9.662218094E0
3.220566317E0,-7.130611539E-1,-3.445664644E-1,9.611968994E0
3.222977359E0,-7.106683254E-1,-3.086741269E-1,9.544969559E0
3.225388348E0,-7.369893789E-1,-2.679961324E-1,9.487542152E0
3.227799390E0,-7.489534616E-1,-2.560320199E-1,9.437292099E0
3.230210432E0,-7.537391186E-1,-2.368894368E-1,9.391828537E0
3.232621421E0,-7.561319470E-1,-2.177468538E-1,9.341579437E0
3.235032463E0,-7.513462901E-1,-1.722832322E-1,9.291330338E0
3.237443452E0,-7.322037220E-1,-1.555334777E-1,9.248259544E0
3.239854494E0,-7.465606928E-1,-1.196411327E-1,9.207581520E0
3.242265536E0,-7.441678643E-1,-9.092725813E-2,9.181260109E0
3.244676525E0,-7.465606928E-1,-5.503492057E-2,9.142974854E0
3.247087567E0,-7.369893789E-1,-1.674975827E-2,9.121439934E0
3.249498557E0,-7.585247755E-1,0.000000000E0,9.090332985E0
3.251909598E0,-7.537391186E-1,5.024927482E-2,9.087940216E0
3.254320588E0,-7.537391186E-1,6.460621208E-2,9.083154678E0
3.256731630E0,-7.513462901E-1,1.028913707E-1,9.066405296E0
3.259142671E0,-7.441678643E-1,1.292124242E-1,9.064012527E0
3.261553661E0,-7.369893789E-1,1.531406492E-1,9.064012527E0
3.263964702E0,-7.298108935E-1,1.722832322E-1,9.071190834E0
3.266375692E0,-7.250252366E-1,2.081755698E-1,9.085547447E0
3.268786734E0,-7.226324677E-1,2.344966233E-1,9.092725754E0
3.271197775E0,-7.034898400E-1,2.632105052E-1,9.123832703E0
3.273608765E0,-6.915257573E-1,3.038884699E-1,9.142974854E0
3.276019807E0,-6.843472719E-1,3.278166950E-1,9.176474571E0
3.278430796E0,-6.723831892E-1,3.661018610E-1,9.209974289E0
3.280841838E0,-6.628118753E-1,3.876372576E-1,9.243474007E0
3.283252827E0,-6.412764788E-1,4.115654826E-1,9.279366493E0
3.285663869E0,-6.173482537E-1,4.546363056E-1,9.300901413E0
3.288074911E0,-6.149554253E-1,4.761717021E-1,9.317651749E0
3.290485900E0,-5.958128572E-1,5.048855543E-1,9.348757744E0
3.292896942E0,-5.742774606E-1,5.335994363E-1,9.384650230E0
3.295307932E0,-5.479564071E-1,5.575276613E-1,9.399007797E0
3.297718973E0,-5.288137794E-1,5.910272002E-1,9.432506561E0
3.300130015E0,-5.096712112E-1,6.364908218E-1,9.456435204E0
3.302541005E0,-4.785645306E-1,6.484549642E-1,9.482755661E0
3.304952046E0,-4.498506486E-1,6.747759581E-1,9.494720459E0
3.307363036E0,-4.307080805E-1,6.963114142E-1,9.506684303E0
3.309774077E0,-4.115654826E-1,7.154539824E-1,9.511469841E0
3.312185067E0,-3.780659735E-1,7.393822074E-1,9.523433685E0
3.314596109E0,-3.445664644E-1,7.489534616E-1,9.533005714E0
3.317007150E0,-3.254238665E-1,7.585247755E-1,9.544969559E0
3.319418140E0,-3.086741269E-1,7.728816867E-1,9.542576790E0
3.321829182E0,-2.919243574E-1,7.968099117E-1,9.533005714E0
3.324240171E0,-2.608176768E-1,8.350951076E-1,9.544969559E0
3.326651213E0,-2.512463629E-1,8.231309652E-1,9.544969559E0
3.329062255E0,-2.321037948E-1,8.398807645E-1,9.533005714E0
3.331473244E0,-2.129612118E-1,8.279166222E-1,9.542576790E0
3.333884286E0,-1.866401732E-1,8.303094506E-1,9.549755096E0
3.336295275E0,-1.483550072E-1,8.374879360E-1,9.564111710E0
3.338706317E0,-1.459621787E-1,8.590233326E-1,9.576076508E0
3.341117307E0,-1.316052526E-1,8.662018180E-1,9.573683739E0
3.343528348E0,-1.172483116E-1,8.662018180E-1,9.580862045E0
3.345939390E0,-1.124626622E-1,8.566305041E-1,9.595218658E0
3.348350380E0,-1.052841991E-1,8.638089895E-1,9.609575272E0
3.350761421E0,-1.124626622E-1,8.662018180E-1,9.616754532E0
3.353172411E0,-9.810572863E-2,8.422735929E-1,9.657432556E0
3.355583452E0,-9.571290761E-2,8.303094506E-1,9.686145782E0
3.357994442E0,-1.004985496E-1,8.303094506E-1,9.726823807E0
3.360405484E0,-9.332008660E-2,8.422735929E-1,9.767501831E0
3.362816525E0,-8.374879509E-2,8.303094506E-1,9.812965393E0
3.365227515E0,-9.810572863E-2,8.111668825E-1,9.865608215E0
3.367638557E0,-1.004985496E-1,8.015955687E-1,9.927821159E0
3.370049546E0,-1.172483116E-1,7.680960894E-1,9.987641335E0
3.372460588E0,-1.292124242E-1,7.657032609E-1,1.007378292E1
3.374871630E0,-1.363908947E-1,7.585247755E-1,1.015274620E1
3.377282619E0,-1.411765367E-1,7.322037220E-1,1.023410225E1
3.379693661E0,-1.698904037E-1,7.250252366E-1,1.033220863E1
3.382104650E0,-1.746760458E-1,7.130611539E-1,1.042792130E1
3.384515692E0,-2.033899277E-1,7.106683254E-1,1.053799057E1
3.386926682E0,-2.177468538E-1,6.795616150E-1,1.064806080E1
3.389337723E0,-2.368894368E-1,6.580262184E-1,1.075095177E1
3.391748713E0,-2.703889608E-1,6.293123364E-1,1.087059307E1
3.394159755E0,-2.967100143E-1,6.029912829E-1,1.099501991E1
3.396570796E0,-3.206382394E-1,5.862415433E-1,1.112662506E1
3.398981786E0,-3.517449200E-1,5.623133183E-1,1.124148083E1
3.401392827E0,-3.972085714E-1,5.264210105E-1,1.135633659E1
3.403803817E0,-4.115654826E-1,4.953143001E-1,1.148315620E1
3.406214859E0,-4.426721931E-1,4.785645306E-1,1.161476135E1
3.408625900E0,-4.857429862E-1,4.522434771E-1,1.173440266E1
3.411036890E0,-5.168496966E-1,4.235295951E-1,1.186840057E1
3.413447932E0,-5.599204898E-1,3.804588020E-1,1.199043465E1
3.415858921E0,-5.862415433E-1,3.373879790E-1,1.211725426E1
3.418269963E0,-6.317051649E-1,2.967100143E-1,1.222014523E1
3.420681005E0,-6.652047038E-1,2.560320199E-1,1.232782269E1
3.423091994E0,-6.867401004E-1,2.321037948E-1,1.242832088E1
3.425503036E0,-7.130611539E-1,1.914258152E-1,1.253599739E1
3.427914025E0,-7.465606928E-1,1.411765367E-1,1.262692547E1
3.430325067E0,-7.920243144E-1,9.810572863E-2,1.270588779E1
3.432736057E0,-8.135597110E-1,6.699903309E-2,1.279681587E1
3.435147098E0,-8.279166222E-1,3.349951655E-2,1.288774300E1
3.437558140E0,-8.542376757E-1,0.000000000E0,1.295713425E1
3.439969130E0,-8.805587292E-1,-4.785645381E-2,1.301934814E1
3.442380171E0,-9.068797827E-1,-9.332008660E-2,1.308395386E1
3.444791161E0,-9.332008362E-1,-1.435693651E-1,1.313659668E1
3.447202202E0,-9.451649189E-1,-1.746760458E-1,1.317248821E1
3.449613244E0,-9.571290612E-1,-2.129612118E-1,1.321077347E1
3.452024234E0,-9.690931439E-1,-2.440679073E-1,1.326341629E1
3.454435275E0,-9.810572863E-1,-2.895315289E-1,1.328973675E1
3.456846265E0,-9.954141974E-1,-3.326023519E-1,1.330887985E1
3.459257307E0,-9.954141974E-1,-3.804588020E-1,1.332084370E1
3.461668296E0,-1.004985452E0,-4.163511395E-1,1.334955788E1
3.464079338E0,-1.019342422E0,-4.522434771E-1,1.337827110E1
3.466490380E0,-1.014556766E0,-4.929214716E-1,1.340219975E1
3.468901369E0,-1.012163997E0,-5.264210105E-1,1.340937805E1
3.471312411E0,-1.021735311E0,-5.647061467E-1,1.342852020E1
3.473723400E0,-1.019342422E0,-6.029912829E-1,1.344287777E1
3.476134442E0,-1.012163997E0,-6.388836503E-1,1.346201992E1
3.478545484E0,-9.834501147E-1,-6.891329288E-1,1.348116302E1
3.480956473E0,-9.762716293E-1,-7.250252366E-1,1.349551964E1
3.483367515E0,-9.690931439E-1,-7.417750359E-1,1.351466274E1
3.485778505E0,-9.427721500E-1,-7.609176040E-1,1.354816151E1
3.488189546E0,-9.236295223E-1,-8.111668825E-1,1.357926846E1
3.490600536E0,-9.164510965E-1,-8.494520187E-1,1.361516094E1
3.493011577E0,-9.044869542E-1,-8.781659007E-1,1.364866066E1
3.495422619E0,-8.781659007E-1,-9.092726111E-1,1.367737389E1
3.497833609E0,-8.494520187E-1,-9.284151793E-1,1.372762394E1
3.500244650E0,-8.422735929E-1,-9.810572863E-1,1.375872993E1
3.502655640E0,-8.327022791E-1,-1.007378340E0,1.378744411E1
3.505066682E0,-8.159525394E-1,-1.031306505E0,1.384247875E1
3.507477723E0,-7.920243144E-1,-1.062413216E0,1.388554955E1
3.509888713E0,-7.441678643E-1,-1.081555843E0,1.392862034E1
3.512299755E0,-7.298108935E-1,-1.105484009E0,1.397408390E1
3.514710744E0,-6.987041831E-1,-1.131805062E0,1.401236916E1
3.517121786E0,-6.795616150E-1,-1.162911773E0,1.402911949E1
3.519532775E0,-6.508477330E-1,-1.182054400E0,1.405304718E1
3.521943817E0,-6.077769399E-1,-1.205982566E0,1.407219028E1
3.524354807E0,-5.910272002E-1,-1.227517962E0,1.408893967E1
3.526765848E0,-5.790630579E-1,-1.239482164E0,1.411047554E1
3.529176890E0,-5.383850932E-1,-1.251446247E0,1.411765385E1
3.531587880E0,-5.000999570E-1,-1.270588875E0,1.411765385E1
3.533998921E0,-4.857429862E-1,-1.272981644E0,1.411286831E1
3.536409911E0,-4.450650215E-1,-1.292124271E0,1.410090351E1
3.538820952E0,-4.211367965E-1,-1.308874011E0,1.406979752E1
3.541231994E0,-3.996013701E-1,-1.313659668E0,1.403390503E1
3.543642984E0,-3.756731451E-1,-1.311266780E0,1.400997639E1
3.546054025E0,-3.469592929E-1,-1.328016520E0,1.397886944E1
3.548465015E0,-3.326023519E-1,-1.306481123E0,1.392862034E1
3.550876057E0,-3.062812984E-1,-1.287338614E0,1.387597847E1
3.553287098E0,-2.919243574E-1,-1.294517040E0,1.380897903E1
3.555698088E0,-2.799602449E-1,-1.308874011E0,1.376351547E1
3.558109130E0,-2.584248483E-1,-1.287338614E0,1.368455315E1
3.560520119E0,-2.368894368E-1,-1.284945726E0,1.363191032E1
3.562931161E0,-2.368894368E-1,-1.275374413E0,1.355294704E1
3.565342202E0,-2.392822653E-1,-1.263410330E0,1.347398472E1
3.567753192E0,-2.273181528E-1,-1.256231904E0,1.340219975E1
3.570164234E0,-2.009970993E-1,-1.234696507E0,1.331605816E1
3.572575223E0,-2.033899277E-1,-1.215553880E0,1.326341629E1
3.574986265E0,-2.009970993E-1,-1.191625714E0,1.319402409E1
3.577397255E0,-2.033899277E-1,-1.150947690E0,1.312702465E1
3.579808296E0,-1.938186288E-1,-1.146162033E0,1.304566860E1
3.582219338E0,-2.009970993E-1,-1.117448211E0,1.298106289E1
3.584630327E0,-2.201396823E-1,-1.088734269E0,1.292842102E1
3.587041369E0,-2.201396823E-1,-1.060020447E0,1.285424328E1
3.589452359E0,-2.440679073E-1,-1.040877819E0,1.280160141E1
3.591863400E0,-2.656033039E-1,-1.007378340E0,1.276570892E1
3.594274390E0,-2.727817893E-1,-9.738788009E-1,1.273220921E1
3.596685432E0,-2.823530734E-1,-9.403793216E-1,1.267238903E1
3.599096421E0,-2.991028428E-1,-9.116654396E-1,1.263888931E1
3.601507463E0,-2.991028428E-1,-8.685946465E-1,1.262213898E1
3.603918505E0,-3.373879790E-1,-8.374879360E-1,1.259103298E1
3.606329494E0,-3.445664644E-1,-7.968099117E-1,1.257428265E1
3.608740536E0,-3.684946895E-1,-7.680960894E-1,1.254317665E1
3.611151577E0,-3.828516304E-1,-7.274180651E-1,1.252164078E1
3.613562567E0,-4.187439680E-1,-6.867401004E-1,1.249292660E1
3.615973609E0,-4.498506486E-1,-6.317051649E-1,1.246421337E1
3.618384598E0,-4.881358147E-1,-5.934200287E-1,1.243789196E1
3.620795640E0,-5.192425251E-1,-5.383850932E-1,1.240678501E1
3.623206630E0,-5.407779217E-1,-4.881358147E-1,1.238525009E1
3.625617671E0,-5.599204898E-1,-4.450650215E-1,1.235653591E1
3.628028713E0,-5.838487148E-1,-3.996013701E-1,1.231825066E1
3.630439702E0,-6.293123364E-1,-3.541377485E-1,1.226321602E1
3.632850744E0,-6.628118753E-1,-2.943171859E-1,1.221775246E1
3.635261734E0,-6.891329288E-1,-2.560320199E-1,1.216989613E1
3.637672775E0,-6.915257573E-1,-2.009970993E-1,1.210289669E1
3.640083765E0,-7.202396393E-1,-1.555334777E-1,1.202154064E1
3.642494807E0,-7.274180651E-1,-9.810572863E-2,1.194975662E1
3.644905848E0,-7.489534616E-1,-4.067798331E-2,1.187079334E1
3.647316838E0,-7.585247755E-1,1.435693540E-2,1.177508068E1
3.649727880E0,-7.800601721E-1,7.896314561E-2,1.167936707E1
3.652138869E0,-8.015955687E-1,1.076770201E-1,1.157647610E1
3.654549911E0,-8.207381964E-1,1.483550072E-1,1.146879864E1
3.656960952E0,-8.279166222E-1,1.914258152E-1,1.136590767E1
3.659371942E0,-8.422735929E-1,2.560320199E-1,1.125344467E1
3.661782984E0,-8.398807645E-1,3.086741269E-1,1.113858986E1
3.664193973E0,-8.566305041E-1,3.541377485E-1,1.100937653E1
3.666605015E0,-8.685946465E-1,4.163511395E-1,1.088495064E1
3.669016005E0,-8.638089895E-1,4.570291340E-1,1.075573826E1
3.671427046E0,-8.638089895E-1,4.881358147E-1,1.062891865E1
3.673838088E0,-8.542376757E-1,5.264210105E-1,1.051167011E1
3.676249077E0,-8.470591903E-1,5.479564071E-1,1.039920712E1
3.678660119E0,-8.542376757E-1,6.101697683E-1,1.027238750E1
3.681071109E0,-8.470591903E-1,6.604190469E-1,1.015753174E1
3.683482150E0,-8.374879360E-1,7.010970116E-1,1.005942631E1
3.685893192E0,-8.111668825E-1,7.393822074E-1,9.956535339E0
3.688304182E0,-7.992027402E-1,7.800601721E-1,9.834501266E0
3.690715223E0,-7.824530005E-1,8.350951076E-1,9.741181374E0
3.693126213E0,-7.657032609E-1,8.638089895E-1,9.662218094E0
3.695537255E0,-7.585247755E-1,8.925228715E-1,9.571290970E0
3.697948244E0,-7.345965505E-1,9.260223508E-1,9.482755661E0
3.700359286E0,-7.226324677E-1,9.714859724E-1,9.415757179E0
3.702770327E0,-7.130611539E-1,1.002592683E0,9.360722542E0
3.705181317E0,-6.891329288E-1,1.040877819E0,9.293723106E0
3.707592359E0,-6.628118753E-1,1.079162955E0,9.221938133E0
3.710003348E0,-6.556333899E-1,1.117448211E0,9.171689034E0
3.712414390E0,-6.293123364E-1,1.160519004E0,9.116654396E0
3.714825380E0,-6.149554253E-1,1.189232826E0,9.068798065E0
3.717236421E0,-5.814558864E-1,1.234696507E0,9.030512810E0
3.719647463E0,-5.527420044E-1,1.251446247E0,8.992227554E0
3.722058452E0,-5.359922647E-1,1.301695466E0,8.934800148E0
3.724469494E0,-5.168496966E-1,1.320838094E0,8.891729355E0
3.726880484E0,-4.809573591E-1,1.342373490E0,8.851051331E0
3.729291525E0,-4.498506486E-1,1.378265858E0,8.815158844E0
3.731702515E0,-4.570291340E-1,1.399801254E0,8.796015739E0
3.734113557E0,-4.211367965E-1,1.404586911E0,8.764909744E0
3.736524598E0,-3.780659735E-1,1.438086390E0,8.721838951E0
3.738935588E0,-3.445664644E-1,1.462014675E0,8.685946465E0
3.741346630E0,-3.254238665E-1,1.483550072E0,8.645268440E0
3.743757671E0,-3.014956415E-1,1.502692580E0,8.611768723E0
3.746168661E0,-2.823530734E-1,1.509871125E0,8.559126854E0
3.748579702E0,-2.679961324E-1,1.517049551E0,8.513663292E0
3.750990692E0,-2.392822653E-1,1.548156261E0,8.463413239E0
3.753401734E0,-2.177468538E-1,1.557727575E0,8.405985832E0
3.755812723E0,-1.890329868E-1,1.545763373E0,8.374878883E0
3.758223765E0,-1.674975902E-1,1.545763373E0,8.338987350E0
3.760634755E0,-1.603191197E-1,1.548156261E0,8.291130066E0
3.763045796E0,-1.459621787E-1,1.552941918E0,8.236095428E0
3.765456838E0,-1.316052526E-1,1.531406522E0,8.173882484E0
3.767867827E0,-1.148554832E-1,1.536192179E0,8.109275818E0
3.770278869E0,-1.052841991E-1,1.533799291E0,8.063812256E0
3.772689859E0,-9.332008660E-2,1.524227977E0,8.023134232E0
3.775100900E0,-8.853443712E-2,1.493121386E0,7.975277901E0
3.777511942E0,-8.135596663E-2,1.490728498E0,7.913064480E0
3.779922932E0,-5.264209956E-2,1.478764415E0,7.872386456E0
3.782333973E0,-5.024927482E-2,1.464407444E0,7.829315662E0
3.784744963E0,-3.589234129E-2,1.452443361E0,7.800601959E0
3.787156005E0,-4.307080805E-2,1.447657704E0,7.750352383E0
3.789566994E0,-4.546362907E-2,1.411765337E0,7.724031448E0
3.791978036E0,-5.264209956E-2,1.409372568E0,7.688138962E0
3.794389077E0,-5.024927482E-2,1.397408366E0,7.671389580E0
3.796800067E0,-5.503492057E-2,1.368694544E0,7.661818027E0
3.799211109E0,-6.221338734E-2,1.344766378E0,7.645068169E0
3.801622098E0,-5.982056633E-2,1.344766378E0,7.630711555E0
3.804033140E0,-8.135596663E-2,1.320838094E0,7.628318787E0
3.806444182E0,-7.657032460E-2,1.284945726E0,7.633104324E0
3.808855171E0,-8.614161611E-2,1.263410330E0,7.630711555E0
3.811266213E0,-8.614161611E-2,1.253839016E0,7.647460938E0
3.813677202E0,-1.076770201E-1,1.227517962E0,7.659425259E0
3.816088244E0,-1.268195957E-1,1.225125194E0,7.673782349E0
3.818499234E0,-1.339980662E-1,1.182054400E0,7.690532207E0
3.820910275E0,-1.555334777E-1,1.165304661E0,7.719245911E0
3.823321317E0,-1.579262912E-1,1.148554921E0,7.750352383E0
3.825732307E0,-1.698904037E-1,1.131805062E0,7.786244869E0
3.828143348E0,-1.794617027E-1,1.107876897E0,7.822137356E0
3.830554338E0,-1.938186288E-1,1.093519926E0,7.867600918E0
3.832965380E0,-2.273181528E-1,1.055234790E0,7.917850018E0
3.835376421E0,-2.584248483E-1,1.043270707E0,7.968099594E0
3.837787411E0,-2.679961324E-1,1.026520967E0,8.025527000E0
3.840198452E0,-2.943171859E-1,1.019342422E0,8.070990562E0
3.842609442E0,-3.230310678E-1,9.906286001E-1,8.123632431E0
3.845020484E0,-3.373879790E-1,9.475577474E-1,8.161917686E0
3.847431473E0,-3.541377485E-1,9.308080077E-1,8.209774017E0
3.849842515E0,-3.732803464E-1,9.020941257E-1,8.260024071E0
3.852253557E0,-3.972085714E-1,8.973084688E-1,8.303094864E0
3.854664546E0,-4.019941986E-1,8.853443861E-1,8.334200859E0
3.857075588E0,-4.354937077E-1,8.422735929E-1,8.377271652E0
3.859486577E0,-4.570291340E-1,7.920243144E-1,8.413164139E0
3.861897619E0,-4.642075896E-1,7.680960894E-1,8.449056625E0
3.864308661E0,-4.809573591E-1,7.489534616E-1,8.477770805E0
3.866719650E0,-5.144568682E-1,7.393822074E-1,8.496912956E0
3.869130692E0,-5.120640397E-1,7.250252366E-1,8.516056061E0
3.871541682E0,-5.288137794E-1,6.771687865E-1,8.547162056E0
3.873952723E0,-5.240281820E-1,6.556333899E-1,8.554341316E0
3.876363713E0,-5.503492355E-1,6.245267391E-1,8.559126854E0
3.878774755E0,-5.670989752E-1,5.862415433E-1,8.575876236E0
3.881185796E0,-5.623133183E-1,5.670989752E-1,8.578269005E0
3.883596786E0,-5.814558864E-1,5.503492355E-1,8.573483467E0
3.886007827E0,-6.125625968E-1,5.144568682E-1,8.559126854E0
3.888418817E0,-6.173482537E-1,4.785645306E-1,8.547162056E0
3.890829859E0,-6.125625968E-1,4.642075896E-1,8.551948547E0
3.893240848E0,-6.005984545E-1,4.498506486E-1,8.551948547E0
3.895651890E0,-6.149554253E-1,4.139583111E-1,8.535198212E0
3.898062932E0,-6.269195080E-1,3.876372576E-1,8.530412674E0
3.900473921E0,-6.340979934E-1,3.517449200E-1,8.528019905E0
3.902884963E0,-6.221339107E-1,3.421736360E-1,8.499305725E0
3.905295952E0,-6.364908218E-1,3.230310678E-1,8.499305725E0
3.907706994E0,-6.221339107E-1,3.254238665E-1,8.496912956E0
3.910117984E0,-6.221339107E-1,2.799602449E-1,8.492127419E0
3.912529025E0,-6.173482537E-1,2.536391914E-1,8.487341881E0
3.914940067E0,-6.221339107E-1,2.392822653E-1,8.499305725E0
3.917351057E0,-6.029912829E-1,2.153540403E-1,8.518448830E0
3.919762098E0,-6.053841114E-1,1.962114573E-1,8.528019905E0
3.922173140E0,-6.077769399E-1,1.746760458E-1,8.532805443E0
3.924584130E0,-6.029912829E-1,1.746760458E-1,8.528019905E0
3.926995171E0,-5.934200287E-1,1.555334777E-1,8.547162056E0
3.929406161E0,-5.838487148E-1,1.411765367E-1,8.571090698E0
3.931817202E0,-5.742774606E-1,1.316052526E-1,8.575876236E0
3.934228192E0,-5.766702294E-1,1.100698411E-1,8.592626572E0
3.936639234E0,-5.694918036E-1,1.076770201E-1,8.623732567E0
3.939050275E0,-5.599204898E-1,9.810572863E-2,8.654839516E0
3.941461265E0,-5.551348329E-1,8.374879509E-2,8.702695847E0
3.943872307E0,-5.407779217E-1,6.460621208E-2,8.733802795E0
3.946283296E0,-5.407779217E-1,5.264209956E-2,8.762516975E0
3.948694338E0,-5.240281820E-1,5.982056633E-2,8.791230202E0
3.951105327E0,-5.096712112E-1,2.871387079E-2,8.824729919E0
3.953516369E0,-4.929214716E-1,2.632104978E-2,8.884550095E0
3.955927411E0,-4.761717021E-1,1.435693540E-2,8.925228119E0
3.958338400E0,-4.546363056E-1,2.153540403E-2,8.970691681E0
3.960749442E0,-4.498506486E-1,2.392822644E-3,9.011369705E0
3.963160432E0,-4.426721931E-1,-9.571290575E-3,9.061619759E0
3.965571473E0,-4.307080805E-1,-1.914258115E-2,9.104690552E0
3.967982515E0,-4.283152521E-1,-4.546362907E-2,9.135796547E0
3.970393505E0,-4.139583111E-1,-5.024927482E-2,9.166903496E0
3.972804546E0,-3.948157430E-1,-4.785645381E-2,9.207581520E0
3.975215536E0,-3.876372576E-1,-4.546362907E-2,9.231510162E0
3.977626577E0,-3.613162339E-1,-4.785645381E-2,9.267401695E0
3.980037567E0,-3.230310678E-1,-5.503492057E-2,9.298508644E0
3.982448609E0,-3.134597540E-1,-3.110669367E-2,9.329615593E0
3.984859650E0,-3.110669553E-1,-4.785645381E-2,9.339186668E0
3.987270640E0,-2.967100143E-1,-6.939185411E-2,9.360722542E0
3.989681682E0,-2.751746178E-1,-5.264209956E-2,9.382257462E0
3.992092671E0,-2.416750938E-1,-5.024927482E-2,9.377471924E0
3.994503713E0,-2.368894368E-1,-4.067798331E-2,9.391828537E0
3.996914702E0,-2.368894368E-1,-4.067798331E-2,9.391828537E0
3.999325744E0,-2.153540403E-1,-4.067798331E-2,9.384650230E0
4.001736786E0,-2.057827413E-1,-3.828516230E-2,9.372686386E0
4.004147775E0,-1.818545163E-1,-3.349951655E-2,9.377471924E0
4.006558817E0,-1.794617027E-1,-2.392822690E-2,9.377471924E0
4.008969807E0,-1.842473447E-1,-2.392822690E-2,9.363115311E0
4.011380848E0,-1.722832322E-1,-7.178467698E-3,9.360722542E0
4.013791838E0,-1.579262912E-1,-7.178467698E-3,9.353543282E0
4.016202880E0,-1.579262912E-1,0.000000000E0,9.341579437E0
4.018613921E0,-1.555334777E-1,0.000000000E0,9.332008362E0
4.021024911E0,-1.411765367E-1,4.785645287E-3,9.336793900E0
4.023435952E0,-1.387837082E-1,1.914258115E-2,9.334401131E0
4.025846942E0,-1.363908947E-1,5.024927482E-2,9.332008362E0
4.028257984E0,-1.268195957E-1,7.896314561E-2,9.343972206E0
4.030669025E0,-1.292124242E-1,8.374879509E-2,9.351150513E0
4.033080015E0,-1.316052526E-1,7.657032460E-2,9.353543282E0
4.035491057E0,-1.339980662E-1,7.896314561E-2,9.372686386E0
4.037902046E0,-1.268195957E-1,1.004985496E-1,9.379864693E0
4.040313088E0,-1.316052526E-1,1.172483116E-1,9.391828537E0
4.042724077E0,-1.387837082E-1,1.339980662E-1,9.420542717E0
4.045135119E0,-1.627119333E-1,1.627119333E-1,9.463613510E0
4.047546161E0,-1.746760458E-1,1.722832322E-1,9.492327690E0
4.049957150E0,-1.722832322E-1,2.033899277E-1,9.511469841E0
4.052368192E0,-1.698904037E-1,2.177468538E-1,9.552147865E0
4.054779182E0,-1.794617027E-1,2.344966233E-1,9.585647583E0
4.057190223E0,-1.890329868E-1,2.488535494E-1,9.619147301E0
4.059601265E0,-2.009970993E-1,2.895315289E-1,9.662218094E0
4.062012255E0,-2.129612118E-1,3.038884699E-1,9.688538551E0
4.064423296E0,-2.225325108E-1,3.206382394E-1,9.734002113E0
4.066834286E0,-2.488535494E-1,3.349951804E-1,9.774680138E0
4.069245327E0,-2.608176768E-1,3.661018610E-1,9.817750931E0
4.071656317E0,-2.823530734E-1,3.972085714E-1,9.870393753E0
4.074067359E0,-3.134597540E-1,4.115654826E-1,9.918250084E0
4.076478400E0,-3.230310678E-1,4.259224236E-1,9.942177773E0
4.078889390E0,-3.493520916E-1,4.666004181E-1,9.978070259E0
4.081300432E0,-3.708875179E-1,4.737788737E-1,1.001635551E1
4.083711421E0,-3.732803464E-1,5.240281820E-1,1.005224800E1
4.086122463E0,-3.804588020E-1,5.575276613E-1,1.008814049E1
4.088533505E0,-4.091726840E-1,5.934200287E-1,1.011685371E1
4.090944494E0,-4.546363056E-1,6.077769399E-1,1.015992451E1
4.093355536E0,-4.857429862E-1,6.340979934E-1,1.017188931E1
4.095766525E0,-5.120640397E-1,6.556333899E-1,1.020060253E1
4.098177567E0,-5.431707501E-1,6.915257573E-1,1.023170948E1
4.100588557E0,-5.527420044E-1,7.154539824E-1,1.024845982E1
4.102999598E0,-5.647061467E-1,7.274180651E-1,1.024845982E1
4.105410640E0,-5.886343718E-1,7.537391186E-1,1.025803089E1
4.107821630E0,-6.005984545E-1,7.896314859E-1,1.027238750E1
4.110232671E0,-6.221339107E-1,8.159525394E-1,1.028435135E1
4.112643661E0,-6.460621357E-1,8.422735929E-1,1.027717304E1
4.115054702E0,-6.628118753E-1,8.685946465E-1,1.025803089E1
4.117465692E0,-6.723831892E-1,8.829515576E-1,1.027956581E1
4.119876734E0,-6.795616150E-1,9.092726111E-1,1.029153061E1
4.122287775E0,-6.939185858E-1,9.260223508E-1,1.027717304E1
4.124698765E0,-7.154539824E-1,9.475577474E-1,1.028195858E1
4.127109807E0,-7.226324677E-1,9.714859724E-1,1.028913784E1
4.129520796E0,-7.345965505E-1,9.906286001E-1,1.025803089E1
4.131931838E0,-7.561319470E-1,1.012163997E0,1.026281643E1
4.134342880E0,-7.561319470E-1,1.038485050E0,1.024606609E1
4.136753869E0,-7.680960894E-1,1.048056364E0,1.025324535E1
4.139164911E0,-7.752745152E-1,1.079162955E0,1.025324535E1
4.141575900E0,-7.752745152E-1,1.086341500E0,1.024606609E1
4.143986942E0,-7.872386575E-1,1.117448211E0,1.026042366E1
4.146397984E0,-7.920243144E-1,1.124626637E0,1.026042366E1
4.148808973E0,-7.944171429E-1,1.143769264E0,1.025563812E1
4.151220015E0,-7.800601721E-1,1.158126116E0,1.025803089E1
4.153631005E0,-7.537391186E-1,1.162911773E0,1.026042366E1
4.156042046E0,-7.680960894E-1,1.177268744E0,1.027956581E1
4.158453036E0,-7.728816867E-1,1.196411371E0,1.028674412E1
4.160864077E0,-7.776673436E-1,1.203589797E0,1.029392338E1
4.163275119E0,-7.585247755E-1,1.203589797E0,1.031785107E1
4.165686109E0,-7.322037220E-1,1.208375454E0,1.033460140E1
4.168097150E0,-7.250252366E-1,1.232303619E0,1.035613632E1
4.170508140E0,-7.154539824E-1,1.232303619E0,1.036331463E1
4.172919182E0,-7.082754970E-1,1.232303619E0,1.039202881E1
4.175330171E0,-6.891329288E-1,1.253839016E0,1.040638542E1
4.177741213E0,-6.747759581E-1,1.251446247E0,1.042313576E1
4.180152202E0,-6.604190469E-1,1.263410330E0,1.047338486E1
4.182563244E0,-6.412764788E-1,1.272981644E0,1.049491978E1
4.184974286E0,-6.173482537E-1,1.256231904E0,1.051406288E1
4.187385275E0,-6.005984545E-1,1.268195987E0,1.055952644E1
4.189796317E0,-5.790630579E-1,1.258624673E0,1.058106136E1
4.192207359E0,-5.647061467E-1,1.227517962E0,1.060259724E1
4.194618348E0,-5.479564071E-1,1.241874933E0,1.062891865E1
4.197029390E0,-5.240281820E-1,1.234696507E0,1.066959572E1
4.199440380E0,-5.024927258E-1,1.215553880E0,1.069113159E1
4.201851421E0,-4.666004181E-1,1.201196909E0,1.072463131E1
4.204262411E0,-4.618147612E-1,1.191625714E0,1.076291656E1
4.206673452E0,-4.450650215E-1,1.170090318E0,1.079641533E1
4.209084494E0,-4.187439680E-1,1.141376376E0,1.082991505E1
4.211495484E0,-3.948157430E-1,1.131805062E0,1.084905815E1
4.213906525E0,-3.780659735E-1,1.110269666E0,1.088255692E1
4.216317515E0,-3.421736360E-1,1.081555843E0,1.089452171E1
4.218728557E0,-3.302095234E-1,1.040877819E0,1.094716358E1
4.221139598E0,-3.086741269E-1,1.028913736E0,1.095673466E1
4.223550588E0,-2.943171859E-1,1.000199914E0,1.099262714E1
4.225961630E0,-2.799602449E-1,9.595218897E-1,1.102612686E1
4.228372619E0,-2.847459018E-1,9.236295223E-1,1.105723381E1
4.230783661E0,-2.703889608E-1,8.901300430E-1,1.107398319E1
4.233194650E0,-2.560320199E-1,8.470591903E-1,1.110509014E1
4.235605692E0,-2.392822653E-1,8.159525394E-1,1.113141060E1
4.238016734E0,-2.440679073E-1,7.704889178E-1,1.116491032E1
4.240427723E0,-2.177468538E-1,7.298108935E-1,1.119123173E1
4.242838765E0,-2.201396823E-1,6.963114142E-1,1.121994495E1
4.245249755E0,-2.249253243E-1,6.532405615E-1,1.126062298E1
4.247660796E0,-2.105683982E-1,6.149554253E-1,1.130130100E1
4.250071838E0,-2.105683982E-1,5.575276613E-1,1.133719349E1
4.252482827E0,-2.033899277E-1,5.120640397E-1,1.137308598E1
4.254893869E0,-2.153540403E-1,4.809573591E-1,1.142333508E1
4.257304859E0,-2.392822653E-1,4.139583111E-1,1.146879864E1
4.259715900E0,-2.464607358E-1,3.732803464E-1,1.152622700E1
4.262126942E0,-2.512463629E-1,3.493520916E-1,1.158126163E1
4.264537932E0,-2.799602449E-1,3.014956415E-1,1.163151073E1
4.266948973E0,-2.967100143E-1,2.536391914E-1,1.168654537E1
4.269359963E0,-3.038884699E-1,1.914258152E-1,1.174875927E1
4.271771005E0,-3.206382394E-1,1.507478207E-1,1.182054424E1
4.274181994E0,-3.373879790E-1,1.196411327E-1,1.188754272E1
4.276593036E0,-3.613162339E-1,7.417750359E-2,1.194975662E1
4.279004025E0,-3.756731451E-1,1.196411345E-2,1.204307652E1
4.281415067E0,-3.900300860E-1,-3.589234129E-2,1.211246777E1
4.283826109E0,-4.259224236E-1,-6.460621208E-2,1.218903828E1
4.286237098E0,-4.522434771E-1,-1.148554832E-1,1.227757263E1
4.288648140E0,-4.833501875E-1,-1.651047617E-1,1.234696484E1
4.291059130E0,-5.120640397E-1,-2.129612118E-1,1.242592812E1
4.293470171E0,-5.431707501E-1,-2.656033039E-1,1.249292660E1
4.295881213E0,-5.694918036E-1,-3.134597540E-1,1.258864021E1
4.298292202E0,-6.029912829E-1,-3.517449200E-1,1.266521072E1
4.300703244E0,-6.149554253E-1,-3.804588020E-1,1.273938751E1
4.303114234E0,-6.484549642E-1,-4.331009090E-1,1.282313633E1
4.305525275E0,-6.843472719E-1,-4.737788737E-1,1.289731407E1
4.307936265E0,-7.058826685E-1,-5.120640397E-1,1.297867012E1
4.310347307E0,-7.369893789E-1,-5.407779217E-1,1.305045509E1
4.312758348E0,-7.537391186E-1,-5.718846321E-1,1.311745358E1
4.315169338E0,-7.824530005E-1,-6.149554253E-1,1.318206024E1
4.317580380E0,-8.015955687E-1,-6.771687865E-1,1.324188042E1
4.319991369E0,-8.374879360E-1,-7.058826685E-1,1.329452229E1
4.322402411E0,-8.662018180E-1,-7.369893789E-1,1.333520031E1
4.324813452E0,-8.757730722E-1,-7.776673436E-1,1.338544941E1
4.327224442E0,-8.901300430E-1,-7.968099117E-1,1.343330669E1
4.329635484E0,-9.020941257E-1,-8.303094506E-1,1.345723438E1
4.332046473E0,-9.092726111E-1,-8.685946465E-1,1.348834133E1
4.334457515E0,-9.308080077E-1,-8.901300430E-1,1.350748348E1
4.336868557E0,-9.236295223E-1,-9.164510965E-1,1.350748348E1
4.339279546E0,-9.308080077E-1,-9.332008362E-1,1.352662659E1
4.341690588E0,-9.475577474E-1,-9.523434043E-1,1.353141212E1
4.344101577E0,-9.523434043E-1,-9.643075466E-1,1.352423382E1
4.346512619E0,-9.427721500E-1,-9.978070259E-1,1.351226902E1
4.348923609E0,-9.499505758E-1,-1.021735311E0,1.350030518E1
4.351334650E0,-9.595218897E-1,-1.033699393E0,1.349551964E1
4.353745692E0,-9.427721500E-1,-1.045663476E0,1.348116302E1
4.356156682E0,-9.355936646E-1,-1.052842021E0,1.346680546E1
4.358567723E0,-9.308080077E-1,-1.074377418E0,1.343330669E1
4.360978713E0,-9.236295223E-1,-1.069591761E0,1.341655636E1
4.363389755E0,-9.212366939E-1,-1.074377418E0,1.340698528E1
4.365800744E0,-8.973084688E-1,-1.100698471E0,1.338784313E1
4.368211786E0,-8.829515576E-1,-1.095912814E0,1.334955788E1
4.370622827E0,-8.733802438E-1,-1.119840980E0,1.332323647E1
4.373033817E0,-8.518448472E-1,-1.127019525E0,1.330648708E1
4.375444859E0,-8.374879360E-1,-1.129412293E0,1.329930782E1
4.377855848E0,-8.231309652E-1,-1.127019525E0,1.328495121E1
4.380266890E0,-8.063812256E-1,-1.131805062E0,1.326580906E1
4.382677932E0,-7.944171429E-1,-1.129412293E0,1.324905872E1
4.385088921E0,-7.848458290E-1,-1.115055323E0,1.324427319E1
4.387499963E0,-7.585247755E-1,-1.119840980E0,1.323709488E1
4.389910952E0,-7.345965505E-1,-1.122233868E0,1.322273827E1
4.392321994E0,-7.058826685E-1,-1.129412293E0,1.320838070E1
4.394732984E0,-6.915257573E-1,-1.117448211E0,1.319641685E1
4.397144025E0,-6.652047038E-1,-1.119840980E0,1.318445301E1
4.399555067E0,-6.556333899E-1,-1.103091240E0,1.319163132E1
4.401966057E0,-6.101697683E-1,-1.100698471E0,1.317727470E1
4.404377098E0,-6.077769399E-1,-1.095912814E0,1.316291714E1
4.406788088E0,-5.862415433E-1,-1.093519926E0,1.317488194E1
4.409199130E0,-5.527420044E-1,-1.076770186E0,1.315573883E1
4.411610119E0,-5.335994363E-1,-1.064806104E0,1.312463188E1
4.414021161E0,-5.120640397E-1,-1.055234790E0,1.311506081E1
4.416432202E0,-4.929214716E-1,-1.052842021E0,1.308156109E1
4.418843192E0,-4.953143001E-1,-1.045663476E0,1.305045509E1
4.421254234E0,-4.594219327E-1,-1.031306505E0,1.302413368E1
4.423665223E0,-4.331009090E-1,-1.026520967E0,1.298584843E1
4.426076265E0,-4.307080805E-1,-1.004985452E0,1.292602825E1
4.428487307E0,-4.043870270E-1,-1.002592683E0,1.288535023E1
4.430898296E0,-3.732803464E-1,-9.810572863E-1,1.283510113E1
4.433309338E0,-3.661018610E-1,-9.355936646E-1,1.277049446E1
4.435720327E0,-3.517449200E-1,-9.212366939E-1,1.271785259E1
4.438131369E0,-3.302095234E-1,-8.949156404E-1,1.263649654E1
4.440542359E0,-3.014956415E-1,-8.709874153E-1,1.255514050E1
4.442953400E0,-2.823530734E-1,-8.638089895E-1,1.247617722E1
4.445364442E0,-2.751746178E-1,-8.374879360E-1,1.237328625E1
4.447775432E0,-2.679961324E-1,-8.063812256E-1,1.230150127E1
4.450186473E0,-2.632105052E-1,-7.896314859E-1,1.221775246E1
4.452597463E0,-2.560320199E-1,-7.728816867E-1,1.212921810E1
4.455008505E0,-2.416750938E-1,-7.585247755E-1,1.204786205E1
4.457419546E0,-2.368894368E-1,-7.393822074E-1,1.195454216E1
4.459830536E0,-2.440679073E-1,-6.915257573E-1,1.188036442E1
4.462241577E0,-2.297109663E-1,-6.819544435E-1,1.181575775E1
4.464652567E0,-2.440679073E-1,-6.412764788E-1,1.173679543E1
4.467063609E0,-2.344966233E-1,-6.221339107E-1,1.165304661E1
4.469474598E0,-2.392822653E-1,-5.958128572E-1,1.157886887E1
4.471885640E0,-2.344966233E-1,-5.694918036E-1,1.149272728E1
4.474296682E0,-2.416750938E-1,-5.551348329E-1,1.142333508E1
4.476707671E0,-2.440679073E-1,-5.216353536E-1,1.137069321E1
4.479118713E0,-2.536391914E-1,-4.857429862E-1,1.130848026E1
4.481529702E0,-2.679961324E-1,-4.594219327E-1,1.123190975E1
4.483940744E0,-2.679961324E-1,-4.354937077E-1,1.119123173E1
4.486351734E0,-2.775674164E-1,-4.187439680E-1,1.114337540E1
4.488762775E0,-2.871387303E-1,-3.876372576E-1,1.110269737E1
4.491173817E0,-3.014956415E-1,-3.852444589E-1,1.105962658E1
4.493584807E0,-3.182454109E-1,-3.589234054E-1,1.101177025E1
4.495995848E0,-3.230310678E-1,-3.421736360E-1,1.098066330E1
4.498406838E0,-3.493520916E-1,-3.062812984E-1,1.093280697E1
4.500817880E0,-3.637090325E-1,-2.703889608E-1,1.091127110E1
4.503228921E0,-3.900300860E-1,-2.560320199E-1,1.089452171E1
4.505639911E0,-3.996013701E-1,-2.105683982E-1,1.086820030E1
4.508050952E0,-4.115654826E-1,-1.962114573E-1,1.084427261E1
4.510461942E0,-4.235295951E-1,-1.794617027E-1,1.080598736E1
4.512872984E0,-4.498506486E-1,-1.531406492E-1,1.078205872E1
4.515284025E0,-4.498506486E-1,-1.148554832E-1,1.075095177E1
4.517695015E0,-4.737788737E-1,-9.571290761E-2,1.071027374E1
4.520106057E0,-4.953143001E-1,-6.460621208E-2,1.067916775E1
4.522517046E0,-5.144568682E-1,-5.024927482E-2,1.061934662E1
4.524928088E0,-5.288137794E-1,-3.349951655E-2,1.057866859E1
4.527339077E0,-5.479564071E-1,-9.571290575E-3,1.053320503E1
4.529750119E0,-5.479564071E-1,1.674975827E-2,1.049013424E1
4.532161161E0,-5.766702294E-1,4.546362907E-2,1.042552853E1
4.534572150E0,-5.814558864E-1,6.939185411E-2,1.038006496E1
4.536983192E0,-5.862415433E-1,9.332008660E-2,1.033220863E1
4.539394182E0,-6.053841114E-1,1.124626622E-1,1.025324535E1
4.541805223E0,-6.077769399E-1,1.363908947E-1,1.019581699E1
4.544216213E0,-6.269195080E-1,1.411765367E-1,1.013599682E1
4.546627255E0,-6.340979934E-1,1.603191197E-1,1.007378292E1
4.549038296E0,-6.508477330E-1,1.986042857E-1,1.000199890E1
4.551449286E0,-6.460621357E-1,1.890329868E-1,9.942177773E0
4.553860327E0,-6.556333899E-1,2.225325108E-1,9.875179291E0
4.556271317E0,-6.675975323E-1,2.273181528E-1,9.810572624E0
4.558682359E0,-6.747759581E-1,2.560320199E-1,9.729216576E0
4.561093400E0,-6.556333899E-1,2.608176768E-1,9.655039787E0
4.563504390E0,-6.556333899E-1,2.943171859E-1,9.580862045E0
4.565915432E0,-6.628118753E-1,2.967100143E-1,9.513862610E0
4.568326421E0,-6.699903607E-1,3.014956415E-1,9.434899330E0
4.570737463E0,-6.604190469E-1,3.182454109E-1,9.360722542E0
4.573148505E0,-6.508477330E-1,3.278166950E-1,9.274580956E0
4.575559494E0,-6.484549642E-1,3.397808075E-1,9.209974289E0
4.577970536E0,-6.436693072E-1,3.565305769E-1,9.131011009E0
4.580381525E0,-6.508477330E-1,3.828516304E-1,9.064012527E0
4.582792567E0,-6.532405615E-1,3.732803464E-1,8.987442017E0
4.585203557E0,-6.364908218E-1,3.756731451E-1,8.937192917E0
4.587614598E0,-6.340979934E-1,3.900300860E-1,8.877371788E0
4.590025640E0,-6.340979934E-1,3.732803464E-1,8.810373306E0
4.592436630E0,-6.245267391E-1,3.900300860E-1,8.755337715E0
4.594847671E0,-6.077769399E-1,4.019941986E-1,8.707481384E0
4.597258661E0,-6.005984545E-1,4.163511395E-1,8.662017822E0
4.599669702E0,-5.742774606E-1,4.187439680E-1,8.611768723E0
4.602080692E0,-5.623133183E-1,4.307080805E-1,8.590232849E0
4.604491734E0,-5.670989752E-1,4.450650215E-1,8.551948547E0
4.606902775E0,-5.742774606E-1,4.450650215E-1,8.528019905E0
4.609313765E0,-5.479564071E-1,4.211367965E-1,8.513663292E0
4.611724807E0,-5.359922647E-1,4.402793646E-1,8.499305725E0
4.614135796E0,-5.120640397E-1,4.307080805E-1,8.494520187E0
4.616546838E0,-5.024927258E-1,4.259224236E-1,8.487341881E0
4.618957827E0,-4.953143001E-1,4.354937077E-1,8.499305725E0
4.621368869E0,-4.857429862E-1,4.307080805E-1,8.508877754E0
4.623779911E0,-4.761717021E-1,4.235295951E-1,8.525627136E0
4.626190900E0,-4.642075896E-1,4.235295951E-1,8.537590981E0
4.628601942E0,-4.689932466E-1,4.187439680E-1,8.551948547E0
4.631012932E0,-4.378865361E-1,4.378865361E-1,8.571090698E0
4.633423973E0,-4.283152521E-1,4.354937077E-1,8.595019341E0
4.635835015E0,-4.091726840E-1,4.354937077E-1,8.626125336E0
4.638246005E0,-3.900300860E-1,4.235295951E-1,8.628518105E0
4.640657046E0,-3.756731451E-1,4.091726840E-1,8.659625053E0
4.643068036E0,-3.708875179E-1,4.163511395E-1,8.673981667E0
4.645479077E0,-3.445664644E-1,4.091726840E-1,8.688339233E0
4.647890067E0,-3.397808075E-1,3.924229145E-1,8.709874153E0
4.650301109E0,-3.302095234E-1,3.780659735E-1,8.724231720E0
4.652712150E0,-3.302095234E-1,3.732803464E-1,8.729017258E0
4.655123140E0,-3.062812984E-1,3.517449200E-1,8.733802795E0
4.657534182E0,-2.871387303E-1,3.493520916E-1,8.726624489E0
4.659945171E0,-2.703889608E-1,3.541377485E-1,8.709874153E0
4.662356213E0,-2.656033039E-1,3.541377485E-1,8.700303078E0
4.664767202E0,-2.679961324E-1,3.349951804E-1,8.681160927E0
4.667178244E0,-2.440679073E-1,3.302095234E-1,8.662017822E0
4.669589286E0,-2.392822653E-1,3.110669553E-1,8.633303642E0
4.672000275E0,-2.416750938E-1,2.823530734E-1,8.606983185E0
4.674411317E0,-2.153540403E-1,2.608176768E-1,8.583054543E0
4.676822307E0,-2.081755698E-1,2.416750938E-1,8.573483467E0
4.679233348E0,-1.818545163E-1,2.273181528E-1,8.561519623E0
4.681644390E0,-1.842473447E-1,2.177468538E-1,8.530412674E0
4.684055380E0,-1.914258152E-1,2.009970993E-1,8.494520187E0
4.686466421E0,-1.842473447E-1,1.794617027E-1,8.480163574E0
4.688877411E0,-1.746760458E-1,1.651047617E-1,8.446663857E0
4.691288452E0,-1.603191197E-1,1.555334777E-1,8.444271088E0
4.693699494E0,-1.627119333E-1,1.363908947E-1,8.439485550E0
4.696110484E0,-1.674975902E-1,1.148554832E-1,8.441878319E0
4.698521525E0,-1.603191197E-1,9.810572863E-2,8.432307243E0
4.700932515E0,-1.603191197E-1,7.896314561E-2,8.432307243E0
4.703343557E0,-1.651047617E-1,6.699903309E-2,8.449056625E0
4.705754546E0,-1.770688742E-1,5.503492057E-2,8.449056625E0
4.708165588E0,-1.698904037E-1,2.871387079E-2,8.451449394E0
4.710576630E0,-1.651047617E-1,7.178467698E-3,8.468199730E0
4.712987619E0,-1.579262912E-1,-9.571290575E-3,8.513663292E0
4.715398661E0,-1.627119333E-1,-2.392822690E-2,8.520841599E0
4.717809650E0,-1.770688742E-1,-4.307080805E-2,8.554341316E0
4.720220692E0,-2.009970993E-1,-7.657032460E-2,8.597412109E0
4.722631682E0,-2.009970993E-1,-9.332008660E-2,8.647661209E0
4.725042723E0,-2.009970993E-1,-9.810572863E-2,8.705088615E0
4.727453765E0,-2.153540403E-1,-1.292124242E-1,8.760123253E0
4.729864755E0,-2.153540403E-1,-1.507478207E-1,8.829515457E0
4.732275796E0,-2.368894368E-1,-1.842473447E-1,8.920442581E0
4.734686786E0,-2.392822653E-1,-2.033899277E-1,9.013762474E0
4.737097827E0,-2.512463629E-1,-2.153540403E-1,9.092725754E0
4.739508869E0,-2.632105052E-1,-2.344966233E-1,9.171689034E0
4.741919859E0,-2.823530734E-1,-2.656033039E-1,9.255437851E0
4.744330900E0,-2.967100143E-1,-2.823530734E-1,9.370293617E0
4.746741890E0,-3.206382394E-1,-2.967100143E-1,9.456435204E0
4.749152932E0,-3.158525825E-1,-3.110669553E-1,9.552147865E0
4.751563921E0,-3.302095234E-1,-3.493520916E-1,9.650253296E0
4.753974963E0,-3.613162339E-1,-3.780659735E-1,9.757930756E0
4.756386005E0,-3.876372576E-1,-3.852444589E-1,9.868000984E0
4.758796994E0,-4.019941986E-1,-4.283152521E-1,9.961320877E0
4.761208036E0,-4.211367965E-1,-4.426721931E-1,1.006660461E1
4.763619025E0,-4.259224236E-1,-4.713860750E-1,1.015274620E1
4.766030067E0,-4.570291340E-1,-4.977070987E-1,1.023170948E1
4.768441109E0,-4.881358147E-1,-5.216353536E-1,1.032263660E1
4.770852098E0,-4.977070987E-1,-5.575276613E-1,1.039442158E1
4.773263140E0,-4.905286431E-1,-5.694918036E-1,1.046620655E1
4.775674130E0,-5.048855543E-1,-5.910272002E-1,1.053559780E1
4.778085171E0,-5.312066078E-1,-6.149554253E-1,1.058824062E1
4.780496161E0,-5.407779217E-1,-6.317051649E-1,1.063848972E1
4.782907202E0,-5.599204898E-1,-6.508477330E-1,1.067438221E1
4.785318244E0,-5.694918036E-1,-6.819544435E-1,1.071506023E1
4.787729234E0,-5.742774606E-1,-6.939185858E-1,1.073898792E1
4.790140275E0,-5.934200287E-1,-7.106683254E-1,1.074855900E1
4.792551265E0,-5.886343718E-1,-7.322037220E-1,1.076291656E1
4.794962307E0,-6.125625968E-1,-7.537391186E-1,1.078205872E1
4.797373348E0,-6.317051649E-1,-7.704889178E-1,1.077009487E1
4.799784338E0,-6.388836503E-1,-7.896314859E-1,1.077966595E1
4.802195380E0,-6.436693072E-1,-8.063812256E-1,1.077966595E1
4.804606369E0,-6.412764788E-1,-8.303094506E-1,1.077488041E1
4.807017411E0,-6.628118753E-1,-8.327022791E-1,1.077248764E1
4.809428400E0,-6.604190469E-1,-8.494520187E-1,1.077727318E1
4.811839442E0,-6.723831892E-1,-8.662018180E-1,1.077009487E1
4.814250484E0,-6.604190469E-1,-8.829515576E-1,1.075813103E1
4.816661473E0,-6.628118753E-1,-9.020941257E-1,1.076052380E1
4.819072515E0,-6.771687865E-1,-9.116654396E-1,1.076291656E1
4.821483505E0,-6.819544435E-1,-9.236295223E-1,1.075813103E1
4.823894546E0,-6.699903607E-1,-9.403793216E-1,1.077009487E1
4.826305536E0,-6.747759581E-1,-9.523434043E-1,1.078923702E1
4.828716577E0,-6.795616150E-1,-9.714859724E-1,1.082034397E1
4.831127619E0,-6.915257573E-1,-9.906286001E-1,1.084666538E1
4.833538609E0,-6.939185858E-1,-1.002592683E0,1.087537861E1
4.835949650E0,-6.819544435E-1,-1.016949654E0,1.091127110E1
4.838360640E0,-6.795616150E-1,-1.040877819E0,1.097348499E1
4.840771682E0,-6.747759581E-1,-1.052842021E0,1.102373409E1
4.843182723E0,-6.795616150E-1,-1.055234790E0,1.108355427E1
4.845593713E0,-6.747759581E-1,-1.088734269E0,1.115533924E1
4.848004755E0,-6.795616150E-1,-1.086341500E0,1.122951698E1
4.850415744E0,-6.963114142E-1,-1.110269666E0,1.131326580E1
4.852826786E0,-6.867401004E-1,-1.138983607E0,1.138744259E1
4.855237775E0,-6.747759581E-1,-1.143769264E0,1.146401310E1
4.857648817E0,-6.532405615E-1,-1.158126116E0,1.155494022E1
4.860059859E0,-6.556333899E-1,-1.198804140E0,1.163390350E1
4.862470848E0,-6.508477330E-1,-1.198804140E0,1.171047401E1
4.864881890E0,-6.340979934E-1,-1.208375454E0,1.180379391E1
4.867292880E0,-6.269195080E-1,-1.201196909E0,1.188275719E1
4.869703921E0,-6.149554253E-1,-1.227517962E0,1.196172047E1
4.872114963E0,-6.053841114E-1,-1.244267821E0,1.203829098E1
4.874525952E0,-6.005984545E-1,-1.253839016E0,1.210768223E1
4.876936994E0,-5.886343718E-1,-1.272981644E0,1.218185997E1
4.879347984E0,-5.838487148E-1,-1.292124271E0,1.225843048E1
4.881759025E0,-5.790630579E-1,-1.299302697E0,1.230867958E1
4.884170015E0,-5.694918036E-1,-1.301695466E0,1.235175037E1
4.886581057E0,-5.527420044E-1,-1.304088354E0,1.239482117E1
4.888992098E0,-5.216353536E-1,-1.311266780E0,1.240199947E1
4.891403088E0,-4.881358147E-1,-1.316052437E0,1.241874981E1
4.893814130E0,-4.881358147E-1,-1.323230863E0,1.244746304E1
4.896225119E0,-4.785645306E-1,-1.320838094E0,1.246899891E1
4.898636161E0,-4.594219327E-1,-1.332802176E0,1.247856998E1
4.901047202E0,-4.354937077E-1,-1.306481123E0,1.248814106E1
4.903458192E0,-4.354937077E-1,-1.299302697E0,1.247378445E1
4.905869234E0,-4.139583111E-1,-1.292124271E0,1.245224857E1
4.908280223E0,-3.924229145E-1,-1.287338614E0,1.243549919E1
4.910691265E0,-3.972085714E-1,-1.272981644E0,1.242114258E1
4.913102255E0,-3.661018610E-1,-1.251446247E0,1.240917778E1
4.915513296E0,-3.613162339E-1,-1.225125194E0,1.236610699E1
4.917924338E0,-3.469592929E-1,-1.210768223E0,1.232782269E1
4.920335327E0,-3.302095234E-1,-1.196411371E0,1.229910851E1
4.922746369E0,-3.134597540E-1,-1.182054400E0,1.227039433E1
4.925157359E0,-3.086741269E-1,-1.158126116E0,1.223210907E1
4.927568400E0,-3.062812984E-1,-1.155733347E0,1.220100307E1
4.929979442E0,-2.967100143E-1,-1.119840980E0,1.217707443E1
4.932390432E0,-2.871387303E-1,-1.083948612E0,1.216032505E1
4.934801473E0,-2.751746178E-1,-1.062413216E0,1.215075302E1
4.937212463E0,-2.727817893E-1,-1.057627559E0,1.214118195E1
4.939623505E0,-2.775674164E-1,-1.036092162E0,1.212443256E1
4.942034494E0,-2.823530734E-1,-1.016949654E0,1.211486149E1
4.944445536E0,-2.703889608E-1,-9.882357717E-1,1.210289669E1
4.946856577E0,-2.679961324E-1,-9.475577474E-1,1.209571838E1
4.949267567E0,-2.775674164E-1,-9.236295223E-1,1.209571838E1
4.951678609E0,-2.871387303E-1,-8.877372146E-1,1.210289669E1
