"Time (s)","Acceleration x (m/s^2)","Acceleration y (m/s^2)","Acceleration z (m/s^2)"
3.668589400E-2,-5.958128572E-1,6.845865726E0,7.271788120E0
3.909688400E-2,-5.934200287E-1,6.848258495E0,7.267002583E0
4.150792500E-2,-5.862415433E-1,6.836294174E0,7.255038261E0
4.391896700E-2,-5.862415433E-1,6.817151546E0,7.257431030E0
4.632995700E-2,-5.814558864E-1,6.807580471E0,7.228717327E0
4.874099800E-2,-5.742774606E-1,6.829115868E0,7.216753006E0
5.115198800E-2,-5.958128572E-1,6.824330330E0,7.195217609E0
5.356302900E-2,-6.340979934E-1,6.814758778E0,7.178467751E0
5.597407100E-2,-6.508477330E-1,6.819544315E0,7.168896675E0
5.838506100E-2,-6.819544435E-1,6.814758778E0,7.171289444E0
6.079610200E-2,-7.034898400E-1,6.826723099E0,7.161718369E0
6.320709200E-2,-7.178468108E-1,6.814758778E0,7.161718369E0
6.561813400E-2,-7.226324677E-1,6.838686943E0,7.156932354E0
6.802912300E-2,-7.202396393E-1,6.843472958E0,7.156932354E0
7.044016500E-2,-7.274180651E-1,6.862615108E0,7.164111137E0
7.285120700E-2,-7.393822074E-1,6.857829571E0,7.192824841E0
7.526219600E-2,-7.345965505E-1,6.855436802E0,7.185646534E0
7.767323800E-2,-7.202396393E-1,6.872186661E0,7.200003147E0
8.008427900E-2,-7.154539824E-1,6.874579430E0,7.226324558E0
8.249526900E-2,-7.130611539E-1,6.869793892E0,7.231110096E0
8.490631100E-2,-7.202396393E-1,6.881757736E0,7.262216568E0
8.731730000E-2,-6.843472719E-1,6.872186661E0,7.298109055E0
8.972834200E-2,-6.723831892E-1,6.891329288E0,7.314858913E0
9.213933200E-2,-6.675975323E-1,6.893722057E0,7.329215527E0
9.455037300E-2,-6.340979934E-1,6.896114826E0,7.334001541E0
9.696141500E-2,-6.149554253E-1,6.903293133E0,7.331608772E0
9.937240400E-2,-6.029912829E-1,6.900900364E0,7.324429989E0
1.017834460E-1,-5.958128572E-1,6.900900364E0,7.314858913E0
1.041944360E-1,-6.125625968E-1,6.893722057E0,7.322037220E0
1.066054770E-1,-6.340979934E-1,6.905686378E0,7.336394310E0
1.090165190E-1,-6.293123364E-1,6.903293133E0,7.343572617E0
1.114275090E-1,-5.958128572E-1,6.903293133E0,7.350750923E0
1.138385500E-1,-5.838487148E-1,6.912864685E0,7.367500782E0
1.162495400E-1,-5.790630579E-1,6.932007313E0,7.391428947E0
1.186605820E-1,-5.838487148E-1,6.929614544E0,7.401000500E0
1.210716230E-1,-5.718846321E-1,6.934400082E0,7.403393269E0
1.234826130E-1,-5.718846321E-1,6.939185619E0,7.441678524E0
1.258936540E-1,-5.694918036E-1,6.941578388E0,7.436892986E0
1.283046440E-1,-5.814558864E-1,6.946363926E0,7.446464062E0
1.307156860E-1,-6.077769399E-1,6.946363926E0,7.439285755E0
1.331267270E-1,-6.101697683E-1,6.963113785E0,7.422535896E0
1.355377170E-1,-6.317051649E-1,6.948757172E0,7.398607731E0
1.379487590E-1,-6.604190469E-1,6.958328247E0,7.367500782E0
1.403597480E-1,-6.747759581E-1,6.960721016E0,7.357929707E0
1.427707900E-1,-6.867401004E-1,6.955935478E0,7.336394310E0
1.451817790E-1,-6.963114142E-1,6.958328247E0,7.324429989E0
1.475928210E-1,-6.963114142E-1,6.958328247E0,7.317251682E0
1.500038630E-1,-6.819544435E-1,6.939185619E0,7.314858913E0
1.524148520E-1,-6.508477330E-1,6.924828529E0,7.314858913E0
1.548258940E-1,-6.317051649E-1,6.903293133E0,7.302894592E0
1.572368840E-1,-6.149554253E-1,6.881757736E0,7.281359196E0
1.596479250E-1,-5.982056856E-1,6.865008354E0,7.269395351E0
1.620589670E-1,-5.790630579E-1,6.836294174E0,7.245467186E0
1.644699570E-1,-5.551348329E-1,6.819544315E0,7.235895634E0
1.668809980E-1,-5.335994363E-1,6.814758778E0,7.233502865E0
1.692919880E-1,-5.144568682E-1,6.802794933E0,7.223931789E0
1.717030290E-1,-5.048855543E-1,6.793223381E0,7.209574699E0
1.741140710E-1,-5.048855543E-1,6.800402164E0,7.216753006E0
1.765250610E-1,-4.977070987E-1,6.798008919E0,7.202396393E0
1.789361020E-1,-5.120640397E-1,6.786045074E0,7.192824841E0
1.813470920E-1,-5.048855543E-1,6.778866768E0,7.171289444E0
1.837581340E-1,-5.072783828E-1,6.764509678E0,7.178467751E0
1.861691750E-1,-5.144568682E-1,6.776473522E0,7.173682213E0
1.885801650E-1,-5.144568682E-1,6.766902447E0,7.185646534E0
1.909912070E-1,-5.168496966E-1,6.764509678E0,7.226324558E0
1.934021960E-1,-5.216353536E-1,6.786045074E0,7.235895634E0
1.958132380E-1,-5.192425251E-1,6.786045074E0,7.247859955E0
1.982242270E-1,-5.072783828E-1,6.798008919E0,7.252645493E0
2.006352690E-1,-5.216353536E-1,6.821937561E0,7.247859955E0
2.030463110E-1,-5.431707501E-1,6.826723099E0,7.257431030E0
2.054573000E-1,-5.479564071E-1,6.829115868E0,7.252645493E0
2.078683420E-1,-5.718846321E-1,6.838686943E0,7.267002583E0
2.102793320E-1,-5.934200287E-1,6.838686943E0,7.255038261E0
2.126903730E-1,-6.101697683E-1,6.824330330E0,7.245467186E0
2.151014150E-1,-6.412764788E-1,6.824330330E0,7.231110096E0
2.175124040E-1,-6.508477330E-1,6.831508636E0,7.216753006E0
2.199234460E-1,-6.699903607E-1,6.824330330E0,7.214360237E0
2.223344360E-1,-6.795616150E-1,6.824330330E0,7.231110096E0
2.247454770E-1,-6.867401004E-1,6.819544315E0,7.238288403E0
2.271565190E-1,-6.675975323E-1,6.802794933E0,7.250252724E0
2.295675090E-1,-6.412764788E-1,6.807580471E0,7.274180889E0
2.319785500E-1,-5.982056856E-1,6.798008919E0,7.271788120E0
2.343895400E-1,-5.718846321E-1,6.800402164E0,7.269395351E0
2.368005820E-1,-5.551348329E-1,6.798008919E0,7.257431030E0
2.392116230E-1,-5.431707501E-1,6.812366009E0,7.264609337E0
2.416226130E-1,-5.407779217E-1,6.805187702E0,7.262216568E0
2.440336540E-1,-5.455635786E-1,6.783652306E0,7.278966427E0
2.464446440E-1,-5.647061467E-1,6.781259537E0,7.288537979E0
2.488556860E-1,-5.934200287E-1,6.764509678E0,7.293323517E0
2.512667270E-1,-6.053841114E-1,6.752545357E0,7.278966427E0
2.536777170E-1,-6.221339107E-1,6.728617191E0,7.262216568E0
2.560887590E-1,-6.317051649E-1,6.731009960E0,7.243073940E0
2.584997480E-1,-6.340979934E-1,6.738188744E0,7.235895634E0
2.609107900E-1,-6.317051649E-1,6.728617191E0,7.238288403E0
2.633217790E-1,-6.293123364E-1,6.726224422E0,7.223931789E0
2.657328210E-1,-6.317051649E-1,6.735795975E0,7.221538544E0
2.681438630E-1,-6.269195080E-1,6.733402729E0,7.207181931E0
2.705548520E-1,-6.269195080E-1,6.735795975E0,7.195217609E0
2.729658940E-1,-6.293123364E-1,6.728617191E0,7.188039303E0
2.753768840E-1,-6.245267391E-1,6.714260101E0,7.173682213E0
2.777879250E-1,-6.245267391E-1,6.714260101E0,7.166503906E0
2.801989670E-1,-6.317051649E-1,6.721438885E0,7.164111137E0
2.826099570E-1,-6.364908218E-1,6.719046116E0,7.164111137E0
2.850209980E-1,-6.436693072E-1,6.735795975E0,7.159325123E0
2.874319880E-1,-6.556333899E-1,6.738188744E0,7.171289444E0
2.898430290E-1,-6.532405615E-1,6.754938126E0,7.178467751E0
2.922540190E-1,-6.604190469E-1,6.759724140E0,7.200003147E0
2.946650610E-1,-6.628118753E-1,6.771687984E0,7.221538544E0
2.970761020E-1,-6.723831892E-1,6.807580471E0,7.238288403E0
2.994870920E-1,-6.771687865E-1,6.826723099E0,7.262216568E0
3.018981340E-1,-6.628118753E-1,6.850651264E0,7.269395351E0
3.043091750E-1,-6.771687865E-1,6.867401123E0,7.286144733E0
3.067201650E-1,-7.106683254E-1,6.884150982E0,7.290930748E0
3.091312070E-1,-7.250252366E-1,6.905686378E0,7.295716286E0
3.115421960E-1,-7.417750359E-1,6.922435760E0,7.307680130E0
3.139532380E-1,-7.609176040E-1,6.922435760E0,7.312466145E0
3.163642790E-1,-7.585247755E-1,6.920042992E0,7.300501823E0
3.187752690E-1,-7.776673436E-1,6.932007313E0,7.302894592E0
3.211863110E-1,-7.992027402E-1,6.934400082E0,7.317251682E0
3.235973000E-1,-8.063812256E-1,6.948757172E0,7.322037220E0
3.260083420E-1,-8.015955687E-1,6.948757172E0,7.336394310E0
3.284193320E-1,-7.968099117E-1,6.943971157E0,7.369893551E0
3.308303730E-1,-7.800601721E-1,6.927221775E0,7.372286797E0
3.332414150E-1,-7.633104324E-1,6.943971157E0,7.377072334E0
3.356524040E-1,-7.274180651E-1,6.934400082E0,7.379465103E0
3.380634460E-1,-7.250252366E-1,6.939185619E0,7.374679565E0
3.404744360E-1,-7.202396393E-1,6.941578388E0,7.374679565E0
3.428854770E-1,-6.963114142E-1,6.939185619E0,7.369893551E0
3.452964670E-1,-6.843472719E-1,6.932007313E0,7.372286797E0
3.477075090E-1,-6.843472719E-1,6.934400082E0,7.365108013E0
3.501185500E-1,-6.699903607E-1,6.946363926E0,7.350750923E0
3.525295400E-1,-6.819544435E-1,6.924828529E0,7.326822758E0
3.549405820E-1,-6.771687865E-1,6.915257454E0,7.317251682E0
3.573515710E-1,-6.723831892E-1,6.900900364E0,7.298109055E0
3.597626130E-1,-6.819544435E-1,6.898507595E0,7.257431030E0
3.621736540E-1,-6.747759581E-1,6.886543751E0,7.238288403E0
3.645846440E-1,-6.675975323E-1,6.896114826E0,7.247859955E0
3.669956860E-1,-6.819544435E-1,6.881757736E0,7.223931789E0
3.694066750E-1,-6.819544435E-1,6.884150982E0,7.221538544E0
3.718177170E-1,-6.939185858E-1,6.908079147E0,7.223931789E0
3.742287590E-1,-7.034898400E-1,6.924828529E0,7.226324558E0
3.766397480E-1,-7.345965505E-1,6.915257454E0,7.238288403E0
3.790507900E-1,-7.417750359E-1,6.932007313E0,7.262216568E0
3.814617790E-1,-7.513462901E-1,6.941578388E0,7.276573658E0
3.838728210E-1,-7.369893789E-1,6.955935478E0,7.298109055E0
3.862838630E-1,-7.322037220E-1,6.941578388E0,7.295716286E0
3.886948520E-1,-7.106683254E-1,6.943971157E0,7.288537979E0
3.911058940E-1,-6.891329288E-1,6.939185619E0,7.276573658E0
3.935168840E-1,-6.747759581E-1,6.929614544E0,7.267002583E0
3.959279250E-1,-6.675975323E-1,6.915257454E0,7.257431030E0
3.983389150E-1,-6.747759581E-1,6.912864685E0,7.269395351E0
4.007499570E-1,-6.675975323E-1,6.912864685E0,7.276573658E0
4.031609980E-1,-6.317051649E-1,6.898507595E0,7.286144733E0
4.055719880E-1,-6.221339107E-1,6.896114826E0,7.276573658E0
4.079830290E-1,-5.910272002E-1,6.865008354E0,7.262216568E0
4.103940190E-1,-5.479564071E-1,6.853044033E0,7.245467186E0
4.128050610E-1,-5.168496966E-1,6.829115868E0,7.238288403E0
4.152161020E-1,-5.024927258E-1,6.817151546E0,7.235895634E0
4.176270920E-1,-4.737788737E-1,6.790830612E0,7.240681171E0
4.200381340E-1,-4.618147612E-1,6.771687984E0,7.247859955E0
4.224491230E-1,-4.618147612E-1,6.752545357E0,7.252645493E0
4.248601650E-1,-4.522434771E-1,6.747759819E0,7.259823799E0
4.272712070E-1,-4.522434771E-1,6.733402729E0,7.259823799E0
4.296821960E-1,-4.259224236E-1,6.742974281E0,7.252645493E0
4.320932380E-1,-4.139583111E-1,6.738188744E0,7.255038261E0
4.345042270E-1,-4.115654826E-1,6.745367050E0,7.247859955E0
4.369152690E-1,-4.139583111E-1,6.740581512E0,7.238288403E0
4.393262590E-1,-4.307080805E-1,6.738188744E0,7.245467186E0
4.417373000E-1,-4.235295951E-1,6.745367050E0,7.250252724E0
4.441483420E-1,-4.307080805E-1,6.752545357E0,7.257431030E0
4.465593320E-1,-4.546363056E-1,6.754938126E0,7.262216568E0
4.489703730E-1,-4.737788737E-1,6.759724140E0,7.252645493E0
4.513813630E-1,-4.857429862E-1,6.778866768E0,7.262216568E0
4.537924040E-1,-5.048855543E-1,6.786045074E0,7.262216568E0
4.562034460E-1,-5.144568682E-1,6.805187702E0,7.252645493E0
4.586144360E-1,-5.527420044E-1,6.826723099E0,7.257431030E0
4.610254770E-1,-5.479564071E-1,6.831508636E0,7.264609337E0
4.634364670E-1,-5.575276613E-1,6.838686943E0,7.278966427E0
4.658475090E-1,-5.383850932E-1,6.848258495E0,7.288537979E0
4.682584980E-1,-5.575276613E-1,6.862615108E0,7.283751965E0
4.706695400E-1,-5.694918036E-1,6.867401123E0,7.276573658E0
4.730805820E-1,-5.599204898E-1,6.857829571E0,7.262216568E0
4.754915710E-1,-5.527420044E-1,6.853044033E0,7.269395351E0
4.779026130E-1,-5.647061467E-1,6.867401123E0,7.278966427E0
4.803136020E-1,-5.527420044E-1,6.881757736E0,7.269395351E0
4.827246440E-1,-5.862415433E-1,6.884150982E0,7.274180889E0
4.851356860E-1,-5.838487148E-1,6.872186661E0,7.283751965E0
4.875466750E-1,-5.814558864E-1,6.865008354E0,7.286144733E0
4.899577170E-1,-5.886343718E-1,6.860222340E0,7.278966427E0
4.923687070E-1,-5.814558864E-1,6.857829571E0,7.281359196E0
4.947797480E-1,-5.886343718E-1,6.853044033E0,7.255038261E0
4.971907900E-1,-6.005984545E-1,6.853044033E0,7.238288403E0
4.996017790E-1,-5.886343718E-1,6.845865726E0,7.240681171E0
5.020128210E-1,-5.670989752E-1,6.826723099E0,7.228717327E0
5.044238110E-1,-5.814558864E-1,6.817151546E0,7.235895634E0
5.068348520E-1,-5.838487148E-1,6.819544315E0,7.245467186E0
5.092458420E-1,-5.934200287E-1,6.836294174E0,7.238288403E0
5.116568840E-1,-6.293123364E-1,6.845865726E0,7.252645493E0
5.140679250E-1,-6.412764788E-1,6.833901405E0,7.262216568E0
5.164789150E-1,-6.484549642E-1,6.831508636E0,7.276573658E0
5.188899570E-1,-6.747759581E-1,6.845865726E0,7.290930748E0
5.213009460E-1,-6.843472719E-1,6.843472958E0,7.274180889E0
5.237119880E-1,-6.891329288E-1,6.848258495E0,7.255038261E0
5.261230290E-1,-7.106683254E-1,6.862615108E0,7.250252724E0
5.285340190E-1,-7.298108935E-1,6.850651264E0,7.252645493E0
5.309450610E-1,-7.513462901E-1,6.869793892E0,7.238288403E0
5.333560500E-1,-7.585247755E-1,6.881757736E0,7.240681171E0
5.357670920E-1,-7.824530005E-1,6.893722057E0,7.269395351E0
5.381780820E-1,-7.800601721E-1,6.905686378E0,7.288537979E0
5.405891230E-1,-7.824530005E-1,6.924828529E0,7.300501823E0
5.430001650E-1,-7.920243144E-1,6.920042992E0,7.307680130E0
5.454111540E-1,-7.752745152E-1,6.920042992E0,7.312466145E0
5.478221960E-1,-7.585247755E-1,6.917650223E0,7.324429989E0
5.502331860E-1,-7.441678643E-1,6.927221775E0,7.336394310E0
5.526442270E-1,-7.369893789E-1,6.948757172E0,7.334001541E0
5.550552690E-1,-7.250252366E-1,6.941578388E0,7.341179848E0
5.574662590E-1,-7.274180651E-1,6.936792850E0,7.331608772E0
5.598773000E-1,-6.939185858E-1,6.936792850E0,7.334001541E0
5.622882900E-1,-6.891329288E-1,6.936792850E0,7.336394310E0
5.646993320E-1,-6.939185858E-1,6.929614544E0,7.336394310E0
5.671103730E-1,-6.819544435E-1,6.920042992E0,7.329215527E0
5.695213630E-1,-6.747759581E-1,6.932007313E0,7.300501823E0
5.719324040E-1,-6.867401004E-1,6.934400082E0,7.276573658E0
5.743433940E-1,-6.795616150E-1,6.943971157E0,7.288537979E0
5.767544360E-1,-6.939185858E-1,6.934400082E0,7.278966427E0
5.791654250E-1,-7.082754970E-1,6.924828529E0,7.250252724E0
5.815764670E-1,-7.010970116E-1,6.932007313E0,7.240681171E0
5.839875090E-1,-7.010970116E-1,6.910471916E0,7.243073940E0
5.863984980E-1,-7.106683254E-1,6.896114826E0,7.247859955E0
5.888095400E-1,-7.034898400E-1,6.898507595E0,7.245467186E0
5.912205290E-1,-6.915257573E-1,6.898507595E0,7.247859955E0
5.936315710E-1,-6.628118753E-1,6.893722057E0,7.262216568E0
5.960426130E-1,-6.532405615E-1,6.865008354E0,7.250252724E0
5.984536020E-1,-6.532405615E-1,6.850651264E0,7.238288403E0
6.008646440E-1,-6.293123364E-1,6.841079712E0,7.233502865E0
6.032756340E-1,-6.293123364E-1,6.838686943E0,7.204789162E0
6.056866750E-1,-6.269195080E-1,6.826723099E0,7.178467751E0
6.080977170E-1,-6.340979934E-1,6.812366009E0,7.159325123E0
6.105087070E-1,-6.340979934E-1,6.809973240E0,7.168896675E0
6.129197480E-1,-6.508477330E-1,6.807580471E0,7.171289444E0
6.153307380E-1,-6.484549642E-1,6.805187702E0,7.188039303E0
6.177417790E-1,-6.436693072E-1,6.790830612E0,7.200003147E0
6.201527690E-1,-6.508477330E-1,6.781259537E0,7.202396393E0
6.225638110E-1,-6.460621357E-1,6.790830612E0,7.204789162E0
6.249748520E-1,-6.221339107E-1,6.793223381E0,7.204789162E0
6.273858420E-1,-5.982056856E-1,6.776473522E0,7.200003147E0
6.297968840E-1,-5.862415433E-1,6.762116909E0,7.200003147E0
6.322078730E-1,-5.982056856E-1,6.766902447E0,7.214360237E0
6.346189150E-1,-6.077769399E-1,6.781259537E0,7.226324558E0
6.370299040E-1,-6.077769399E-1,6.781259537E0,7.233502865E0
6.394409460E-1,-6.077769399E-1,6.781259537E0,7.243073940E0
6.418519880E-1,-6.173482537E-1,6.795616150E0,7.238288403E0
6.442629770E-1,-6.269195080E-1,6.802794933E0,7.257431030E0
6.466740190E-1,-6.436693072E-1,6.807580471E0,7.247859955E0
6.490850090E-1,-6.364908218E-1,6.800402164E0,7.252645493E0
6.514960500E-1,-6.245267391E-1,6.790830612E0,7.238288403E0
6.539070920E-1,-6.388836503E-1,6.795616150E0,7.238288403E0
6.563180820E-1,-6.460621357E-1,6.805187702E0,7.245467186E0
6.587291230E-1,-6.556333899E-1,6.819544315E0,7.240681171E0
6.611401130E-1,-6.508477330E-1,6.817151546E0,7.255038261E0
6.635511540E-1,-6.532405615E-1,6.817151546E0,7.257431030E0
6.659621960E-1,-6.460621357E-1,6.838686943E0,7.264609337E0
6.683731860E-1,-6.269195080E-1,6.848258495E0,7.286144733E0
6.707842270E-1,-5.982056856E-1,6.865008354E0,7.283751965E0
6.731952170E-1,-5.934200287E-1,6.881757736E0,7.295716286E0
6.756062590E-1,-5.718846321E-1,6.879364967E0,7.300501823E0
6.780172480E-1,-5.599204898E-1,6.881757736E0,7.305287361E0
6.804282900E-1,-5.575276613E-1,6.900900364E0,7.322037220E0
6.828393320E-1,-5.670989752E-1,6.898507595E0,7.305287361E0
6.852503210E-1,-5.886343718E-1,6.908079147E0,7.305287361E0
6.876613630E-1,-5.886343718E-1,6.903293133E0,7.276573658E0
6.900724040E-1,-5.862415433E-1,6.903293133E0,7.269395351E0
6.924833940E-1,-5.766702294E-1,6.910471916E0,7.274180889E0
6.948944360E-1,-5.718846321E-1,6.900900364E0,7.286144733E0
6.973054250E-1,-5.575276613E-1,6.876972198E0,7.305287361E0
6.997164670E-1,-5.623133183E-1,6.865008354E0,7.298109055E0
7.021274570E-1,-5.934200287E-1,6.857829571E0,7.262216568E0
7.045384980E-1,-6.221339107E-1,6.855436802E0,7.240681171E0
7.069495400E-1,-6.675975323E-1,6.845865726E0,7.238288403E0
7.093605290E-1,-6.867401004E-1,6.836294174E0,7.240681171E0
7.117715710E-1,-7.058826685E-1,6.841079712E0,7.226324558E0
7.141825610E-1,-7.250252366E-1,6.855436802E0,7.223931789E0
7.165936020E-1,-6.819544435E-1,6.838686943E0,7.214360237E0
7.190045920E-1,-6.508477330E-1,6.843472958E0,7.233502865E0
7.214156340E-1,-6.771687865E-1,6.841079712E0,7.290930748E0
7.238266750E-1,-7.250252366E-1,6.841079712E0,7.357929707E0
7.262376650E-1,-7.417750359E-1,6.850651264E0,7.384250641E0
7.286487070E-1,-7.441678643E-1,6.836294174E0,7.357929707E0
7.310596960E-1,-7.393822074E-1,6.848258495E0,7.319644451E0
7.334707380E-1,-7.226324677E-1,6.888936520E0,7.269395351E0
7.358817790E-1,-7.417750359E-1,6.898507595E0,7.238288403E0
7.382927690E-1,-7.441678643E-1,6.903293133E0,7.223931789E0
7.407038110E-1,-7.489534616E-1,6.900900364E0,7.245467186E0
7.431148000E-1,-7.585247755E-1,6.891329288E0,7.278966427E0
7.455258420E-1,-7.728816867E-1,6.853044033E0,7.300501823E0
7.479368320E-1,-7.465606928E-1,6.850651264E0,7.319644451E0
7.503478730E-1,-7.345965505E-1,6.862615108E0,7.302894592E0
7.527589150E-1,-7.130611539E-1,6.857829571E0,7.300501823E0
7.551699040E-1,-6.795616150E-1,6.855436802E0,7.267002583E0
7.575809460E-1,-6.675975323E-1,6.855436802E0,7.243073940E0
7.599919360E-1,-6.436693072E-1,6.860222340E0,7.255038261E0
7.624029770E-1,-6.364908218E-1,6.860222340E0,7.269395351E0
7.648140190E-1,-6.364908218E-1,6.845865726E0,7.290930748E0
7.672250090E-1,-6.053841114E-1,6.845865726E0,7.310073376E0
7.696360500E-1,-5.910272002E-1,6.855436802E0,7.298109055E0
7.720470400E-1,-5.623133183E-1,6.831508636E0,7.298109055E0
7.744580820E-1,-5.407779217E-1,6.841079712E0,7.305287361E0
7.768690710E-1,-5.120640397E-1,6.824330330E0,7.283751965E0
7.792801130E-1,-4.833501875E-1,6.821937561E0,7.267002583E0
7.816911540E-1,-4.737788737E-1,6.793223381E0,7.278966427E0
7.841021440E-1,-4.785645306E-1,6.781259537E0,7.271788120E0
7.865131860E-1,-4.809573591E-1,6.793223381E0,7.269395351E0
7.889241750E-1,-4.977070987E-1,6.795616150E0,7.259823799E0
7.913352170E-1,-4.953143001E-1,6.790830612E0,7.255038261E0
7.937462590E-1,-4.857429862E-1,6.786045074E0,7.259823799E0
7.961572480E-1,-4.881358147E-1,6.790830612E0,7.255038261E0
7.985682900E-1,-4.881358147E-1,6.790830612E0,7.235895634E0
8.009792790E-1,-4.761717021E-1,6.788437843E0,7.216753006E0
8.033903210E-1,-4.785645306E-1,6.793223381E0,7.204789162E0
8.058013630E-1,-4.809573591E-1,6.776473522E0,7.188039303E0
8.082123520E-1,-4.833501875E-1,6.778866768E0,7.178467751E0
8.106233940E-1,-4.689932466E-1,6.788437843E0,7.180860519E0
8.130343840E-1,-4.689932466E-1,6.776473522E0,7.164111137E0
8.154454250E-1,-4.905286431E-1,6.783652306E0,7.154539585E0
8.178564150E-1,-5.120640397E-1,6.786045074E0,7.144968510E0
8.202674570E-1,-5.192425251E-1,6.786045074E0,7.137789726E0
8.226784980E-1,-5.288137794E-1,6.788437843E0,7.149754047E0
8.250894880E-1,-5.288137794E-1,6.805187702E0,7.156932354E0
8.275005290E-1,-5.479564071E-1,6.814758778E0,7.161718369E0
8.299115190E-1,-5.623133183E-1,6.790830612E0,7.168896675E0
8.323225610E-1,-5.335994363E-1,6.795616150E0,7.166503906E0
8.347336020E-1,-5.168496966E-1,6.795616150E0,7.156932354E0
8.371445920E-1,-5.000999570E-1,6.790830612E0,7.166503906E0
8.395556340E-1,-4.929214716E-1,6.790830612E0,7.171289444E0
8.419666230E-1,-5.120640397E-1,6.786045074E0,7.188039303E0
8.443776650E-1,-5.216353536E-1,6.798008919E0,7.200003147E0
8.467886540E-1,-5.312066078E-1,6.826723099E0,7.221538544E0
8.491996960E-1,-5.479564071E-1,6.836294174E0,7.231110096E0
8.516107380E-1,-5.670989752E-1,6.853044033E0,7.240681171E0
8.540217270E-1,-5.910272002E-1,6.862615108E0,7.252645493E0
8.564327690E-1,-6.293123364E-1,6.896114826E0,7.262216568E0
8.588437590E-1,-6.364908218E-1,6.910471916E0,7.288537979E0
8.612548000E-1,-6.604190469E-1,6.934400082E0,7.298109055E0
8.636658420E-1,-6.747759581E-1,6.953542709E0,7.319644451E0
8.660768320E-1,-6.628118753E-1,6.951149940E0,7.329215527E0
8.684878730E-1,-6.556333899E-1,6.972685337E0,7.345965385E0
8.708988630E-1,-6.604190469E-1,6.994220734E0,7.341179848E0
8.733099040E-1,-6.723831892E-1,6.982256413E0,7.343572617E0
8.757209460E-1,-6.843472719E-1,6.994220734E0,7.357929707E0
8.781319360E-1,-7.034898400E-1,6.987041950E0,7.367500782E0
8.805429770E-1,-7.130611539E-1,6.999006271E0,7.374679565E0
8.829539670E-1,-7.154539824E-1,6.989434719E0,7.386643410E0
8.853650090E-1,-7.274180651E-1,6.989434719E0,7.396214962E0
8.877759980E-1,-7.178468108E-1,6.984649181E0,7.396214962E0
8.901870400E-1,-6.987041831E-1,6.963113785E0,7.393822193E0
8.925980820E-1,-7.130611539E-1,6.975078106E0,7.377072334E0
8.950090710E-1,-7.202396393E-1,6.970292568E0,7.369893551E0
8.974201130E-1,-7.106683254E-1,6.960721016E0,7.350750923E0
8.998311020E-1,-7.250252366E-1,6.953542709E0,7.331608772E0
9.022421440E-1,-7.513462901E-1,6.936792850E0,7.317251682E0
9.046531860E-1,-7.489534616E-1,6.951149940E0,7.305287361E0
9.070641750E-1,-7.489534616E-1,6.936792850E0,7.281359196E0
9.094752170E-1,-7.537391186E-1,6.929614544E0,7.281359196E0
9.118862070E-1,-7.704889178E-1,6.910471916E0,7.276573658E0
9.142972480E-1,-7.537391186E-1,6.900900364E0,7.276573658E0
9.167082900E-1,-7.585247755E-1,6.910471916E0,7.295716286E0
9.191192790E-1,-7.417750359E-1,6.910471916E0,7.298109055E0
9.215303210E-1,-7.298108935E-1,6.908079147E0,7.302894592E0
9.239413110E-1,-7.010970116E-1,6.920042992E0,7.314858913E0
9.263523520E-1,-7.058826685E-1,6.929614544E0,7.324429989E0
9.287633420E-1,-6.915257573E-1,6.951149940E0,7.331608772E0
9.311743840E-1,-6.915257573E-1,6.960721016E0,7.353144169E0
9.335854250E-1,-7.034898400E-1,6.943971157E0,7.353144169E0
9.359964150E-1,-6.963114142E-1,6.960721016E0,7.345965385E0
9.384074570E-1,-6.987041831E-1,6.972685337E0,7.336394310E0
9.408184460E-1,-6.891329288E-1,6.960721016E0,7.331608772E0
9.432294880E-1,-6.795616150E-1,6.963113785E0,7.329215527E0
9.456405290E-1,-6.556333899E-1,6.939185619E0,7.312466145E0
9.480515190E-1,-6.580262184E-1,6.929614544E0,7.302894592E0
9.504625610E-1,-6.436693072E-1,6.908079147E0,7.298109055E0
9.528735500E-1,-6.412764788E-1,6.900900364E0,7.293323517E0
9.552845920E-1,-6.364908218E-1,6.886543751E0,7.276573658E0
9.576956340E-1,-6.293123364E-1,6.884150982E0,7.290930748E0
9.601066230E-1,-6.077769399E-1,6.860222340E0,7.274180889E0
9.625176650E-1,-5.910272002E-1,6.867401123E0,7.281359196E0
9.649286540E-1,-5.479564071E-1,6.848258495E0,7.276573658E0
9.673396960E-1,-5.575276613E-1,6.843472958E0,7.259823799E0
9.697506860E-1,-5.479564071E-1,6.826723099E0,7.255038261E0
9.721617270E-1,-5.048855543E-1,6.821937561E0,7.247859955E0
9.745727690E-1,-4.689932466E-1,6.809973240E0,7.267002583E0
9.769837590E-1,-4.474578202E-1,6.795616150E0,7.264609337E0
9.793948000E-1,-4.570291340E-1,6.786045074E0,7.233502865E0
9.818057900E-1,-4.689932466E-1,6.778866768E0,7.207181931E0
9.842168320E-1,-4.713860750E-1,6.747759819E0,7.180860519E0
9.866278730E-1,-4.881358147E-1,6.723831654E0,7.178467751E0
9.890388630E-1,-4.929214716E-1,6.707081795E0,7.188039303E0
9.914499040E-1,-4.666004181E-1,6.678368092E0,7.185646534E0
9.938608940E-1,-4.713860750E-1,6.659225464E0,7.178467751E0
9.962719360E-1,-4.474578202E-1,6.661618233E0,7.154539585E0
9.986829250E-1,-4.067798555E-1,6.649653912E0,7.147361279E0
1.001093967E0,-3.996013701E-1,6.652047157E0,7.121040344E0
1.003505009E0,-3.876372576E-1,6.640082836E0,7.106683254E0
1.005915998E0,-3.804588020E-1,6.664011002E0,7.118647575E0
1.008327040E0,-3.780659735E-1,6.683153629E0,7.113861561E0
1.010738029E0,-3.900300860E-1,6.692724705E0,7.147361279E0
1.013149071E0,-3.828516304E-1,6.680760860E0,7.192824841E0
1.015560113E0,-3.708875179E-1,6.683153629E0,7.214360237E0
1.017971102E0,-3.661018610E-1,6.673582554E0,7.231110096E0
1.020382144E0,-3.780659735E-1,6.680760860E0,7.235895634E0
1.022793134E0,-3.900300860E-1,6.687939167E0,7.235895634E0
1.025204175E0,-4.163511395E-1,6.723831654E0,7.216753006E0
1.027615165E0,-4.307080805E-1,6.728617191E0,7.202396393E0
1.030026207E0,-4.953143001E-1,6.754938126E0,7.195217609E0
1.032437248E0,-5.240281820E-1,6.766902447E0,7.185646534E0
1.034848238E0,-5.312066078E-1,6.764509678E0,7.202396393E0
1.037259279E0,-5.718846321E-1,6.774080753E0,7.202396393E0
1.039670269E0,-6.149554253E-1,6.759724140E0,7.207181931E0
1.042081311E0,-6.221339107E-1,6.766902447E0,7.223931789E0
1.044492352E0,-6.197410822E-1,6.778866768E0,7.233502865E0
1.046903342E0,-6.412764788E-1,6.793223381E0,7.238288403E0
1.049314384E0,-6.652047038E-1,6.800402164E0,7.259823799E0
1.051725373E0,-6.723831892E-1,6.819544315E0,7.283751965E0
1.054136415E0,-6.723831892E-1,6.824330330E0,7.305287361E0
1.056547457E0,-6.723831892E-1,6.819544315E0,7.326822758E0
1.058958446E0,-6.843472719E-1,6.831508636E0,7.345965385E0
1.061369488E0,-7.010970116E-1,6.848258495E0,7.348358154E0
1.063780477E0,-7.226324677E-1,6.865008354E0,7.341179848E0
1.066191519E0,-7.250252366E-1,6.905686378E0,7.329215527E0
1.068602509E0,-7.465606928E-1,6.898507595E0,7.322037220E0
1.071013550E0,-7.609176040E-1,6.917650223E0,7.345965385E0
1.073424592E0,-7.848458290E-1,6.903293133E0,7.348358154E0
1.075835582E0,-7.872386575E-1,6.884150982E0,7.357929707E0
1.078246623E0,-7.968099117E-1,6.896114826E0,7.384250641E0
1.080657613E0,-7.800601721E-1,6.900900364E0,7.389036179E0
1.083068654E0,-7.489534616E-1,6.893722057E0,7.401000500E0
1.085479696E0,-7.250252366E-1,6.912864685E0,7.389036179E0
1.087890686E0,-7.130611539E-1,6.896114826E0,7.374679565E0
1.090301727E0,-6.987041831E-1,6.896114826E0,7.357929707E0
1.092712717E0,-6.795616150E-1,6.886543751E0,7.357929707E0
1.095123759E0,-6.652047038E-1,6.886543751E0,7.343572617E0
1.097534800E0,-6.747759581E-1,6.872186661E0,7.329215527E0
1.099945790E0,-6.628118753E-1,6.881757736E0,7.341179848E0
1.102356832E0,-6.508477330E-1,6.886543751E0,7.353144169E0
1.104767821E0,-6.508477330E-1,6.881757736E0,7.353144169E0
1.107178863E0,-6.556333899E-1,6.876972198E0,7.341179848E0
1.109589904E0,-6.269195080E-1,6.884150982E0,7.336394310E0
1.112000894E0,-6.245267391E-1,6.872186661E0,7.305287361E0
1.114411936E0,-6.125625968E-1,6.860222340E0,7.274180889E0
1.116822925E0,-6.005984545E-1,6.879364967E0,7.267002583E0
1.119233967E0,-5.886343718E-1,6.860222340E0,7.264609337E0
1.121644957E0,-5.575276613E-1,6.836294174E0,7.269395351E0
1.124055998E0,-5.216353536E-1,6.829115868E0,7.262216568E0
1.126467040E0,-4.833501875E-1,6.841079712E0,7.274180889E0
1.128878029E0,-4.785645306E-1,6.853044033E0,7.300501823E0
1.131289071E0,-4.570291340E-1,6.850651264E0,7.302894592E0
1.133700061E0,-4.522434771E-1,6.850651264E0,7.322037220E0
1.136111102E0,-4.642075896E-1,6.831508636E0,7.322037220E0
1.138522092E0,-4.857429862E-1,6.848258495E0,7.334001541E0
1.140933134E0,-4.929214716E-1,6.853044033E0,7.336394310E0
1.143344175E0,-5.240281820E-1,6.865008354E0,7.345965385E0
1.145755165E0,-5.551348329E-1,6.881757736E0,7.362715244E0
1.148166207E0,-5.503492355E-1,6.905686378E0,7.372286797E0
1.150577196E0,-5.670989752E-1,6.910471916E0,7.391428947E0
1.152988238E0,-5.599204898E-1,6.927221775E0,7.398607731E0
1.155399279E0,-5.694918036E-1,6.934400082E0,7.391428947E0
1.157810269E0,-5.958128572E-1,6.922435760E0,7.389036179E0
1.160221311E0,-6.125625968E-1,6.936792850E0,7.398607731E0
1.162632300E0,-6.173482537E-1,6.939185619E0,7.391428947E0
1.165043342E0,-6.245267391E-1,6.920042992E0,7.393822193E0
1.167454332E0,-6.173482537E-1,6.917650223E0,7.384250641E0
1.169865373E0,-6.197410822E-1,6.917650223E0,7.384250641E0
1.172276415E0,-5.934200287E-1,6.924828529E0,7.377072334E0
1.174687404E0,-5.838487148E-1,6.917650223E0,7.360322475E0
1.177098446E0,-5.958128572E-1,6.893722057E0,7.343572617E0
1.179509436E0,-5.814558864E-1,6.898507595E0,7.317251682E0
1.181920477E0,-5.575276613E-1,6.900900364E0,7.310073376E0
1.184331519E0,-5.407779217E-1,6.891329288E0,7.286144733E0
1.186742509E0,-5.264210105E-1,6.888936520E0,7.264609337E0
1.189153550E0,-5.288137794E-1,6.867401123E0,7.245467186E0
1.191564540E0,-5.240281820E-1,6.867401123E0,7.255038261E0
1.193975582E0,-5.048855543E-1,6.872186661E0,7.262216568E0
1.196386623E0,-4.881358147E-1,6.853044033E0,7.262216568E0
1.198797613E0,-4.594219327E-1,6.845865726E0,7.281359196E0
1.201208654E0,-4.474578202E-1,6.869793892E0,7.276573658E0
1.203619644E0,-4.450650215E-1,6.879364967E0,7.274180889E0
1.206030686E0,-4.594219327E-1,6.876972198E0,7.262216568E0
1.208441675E0,-4.666004181E-1,6.886543751E0,7.231110096E0
1.210852717E0,-4.977070987E-1,6.888936520E0,7.180860519E0
1.213263759E0,-5.383850932E-1,6.860222340E0,7.116254330E0
1.215674748E0,-5.623133183E-1,6.829115868E0,7.085147858E0
1.218085790E0,-5.575276613E-1,6.809973240E0,7.082755089E0
1.220496779E0,-5.790630579E-1,6.788437843E0,7.077969551E0
1.222907821E0,-5.910272002E-1,6.776473522E0,7.085147858E0
1.225318863E0,-5.790630579E-1,6.769295216E0,7.106683254E0
1.227729852E0,-5.551348329E-1,6.762116909E0,7.104290485E0
1.230140894E0,-5.359922647E-1,6.774080753E0,7.099504948E0
1.232551884E0,-5.072783828E-1,6.793223381E0,7.097112179E0
1.234962925E0,-4.785645306E-1,6.807580471E0,7.101897717E0
1.237373967E0,-4.761717021E-1,6.807580471E0,7.101897717E0
1.239784957E0,-4.761717021E-1,6.783652306E0,7.113861561E0
1.242195998E0,-4.713860750E-1,6.788437843E0,7.144968510E0
1.244606988E0,-4.737788737E-1,6.766902447E0,7.176074982E0
1.247018029E0,-4.809573591E-1,6.764509678E0,7.200003147E0
1.249429071E0,-5.096712112E-1,6.759724140E0,7.226324558E0
1.251840061E0,-5.192425251E-1,6.766902447E0,7.238288403E0
1.254251102E0,-5.359922647E-1,6.786045074E0,7.245467186E0
1.256662092E0,-5.623133183E-1,6.786045074E0,7.250252724E0
1.259073134E0,-5.838487148E-1,6.821937561E0,7.264609337E0
1.261484123E0,-6.077769399E-1,6.829115868E0,7.269395351E0
1.263895165E0,-6.484549642E-1,6.836294174E0,7.274180889E0
1.266306207E0,-6.723831892E-1,6.838686943E0,7.271788120E0
1.268717196E0,-7.010970116E-1,6.838686943E0,7.257431030E0
1.271128238E0,-7.010970116E-1,6.860222340E0,7.262216568E0
1.273539227E0,-7.298108935E-1,6.857829571E0,7.255038261E0
1.275950269E0,-7.728816867E-1,6.876972198E0,7.257431030E0
1.278361311E0,-8.015955687E-1,6.862615108E0,7.262216568E0
1.280772300E0,-8.279166222E-1,6.872186661E0,7.290930748E0
1.283183342E0,-8.398807645E-1,6.879364967E0,7.300501823E0
1.285594332E0,-8.374879360E-1,6.881757736E0,7.283751965E0
1.288005373E0,-8.566305041E-1,6.900900364E0,7.278966427E0
1.290416363E0,-8.470591903E-1,6.898507595E0,7.278966427E0
1.292827404E0,-8.255237937E-1,6.908079147E0,7.302894592E0
1.295238446E0,-7.968099117E-1,6.912864685E0,7.329215527E0
1.297649436E0,-7.609176040E-1,6.896114826E0,7.348358154E0
1.300060477E0,-7.202396393E-1,6.893722057E0,7.365108013E0
1.302471467E0,-6.843472719E-1,6.881757736E0,7.367500782E0
1.304882509E0,-6.412764788E-1,6.876972198E0,7.367500782E0
1.307293550E0,-5.982056856E-1,6.876972198E0,7.355536938E0
1.309704540E0,-5.766702294E-1,6.879364967E0,7.329215527E0
1.312115582E0,-5.718846321E-1,6.872186661E0,7.324429989E0
1.314526571E0,-5.910272002E-1,6.876972198E0,7.300501823E0
1.316937613E0,-5.910272002E-1,6.857829571E0,7.281359196E0
1.319348654E0,-6.173482537E-1,6.869793892E0,7.262216568E0
1.321759644E0,-6.556333899E-1,6.862615108E0,7.247859955E0
1.324170686E0,-6.819544435E-1,6.857829571E0,7.235895634E0
1.326581675E0,-7.058826685E-1,6.862615108E0,7.238288403E0
1.328992717E0,-7.202396393E-1,6.855436802E0,7.228717327E0
1.331403707E0,-7.441678643E-1,6.853044033E0,7.226324558E0
1.333814748E0,-7.513462901E-1,6.838686943E0,7.214360237E0
1.336225790E0,-7.609176040E-1,6.829115868E0,7.226324558E0
1.338636779E0,-7.680960894E-1,6.831508636E0,7.223931789E0
1.341047821E0,-7.680960894E-1,6.843472958E0,7.211967468E0
1.343458811E0,-7.752745152E-1,6.843472958E0,7.214360237E0
1.345869852E0,-7.609176040E-1,6.845865726E0,7.211967468E0
1.348280894E0,-7.561319470E-1,6.850651264E0,7.245467186E0
1.350691884E0,-7.513462901E-1,6.824330330E0,7.245467186E0
1.353102925E0,-7.058826685E-1,6.829115868E0,7.278966427E0
1.355513915E0,-6.723831892E-1,6.838686943E0,7.290930748E0
1.357924957E0,-6.436693072E-1,6.850651264E0,7.288537979E0
1.360335946E0,-6.508477330E-1,6.857829571E0,7.290930748E0
1.362746988E0,-6.269195080E-1,6.848258495E0,7.283751965E0
1.365158029E0,-6.293123364E-1,6.860222340E0,7.283751965E0
1.367569019E0,-6.436693072E-1,6.874579430E0,7.295716286E0
1.369980061E0,-6.556333899E-1,6.891329288E0,7.288537979E0
1.372391102E0,-6.747759581E-1,6.896114826E0,7.288537979E0
1.374802092E0,-6.843472719E-1,6.912864685E0,7.298109055E0
1.377213134E0,-7.010970116E-1,6.929614544E0,7.305287361E0
1.379624123E0,-7.010970116E-1,6.920042992E0,7.312466145E0
1.382035165E0,-7.010970116E-1,6.943971157E0,7.324429989E0
1.384446154E0,-7.034898400E-1,6.941578388E0,7.319644451E0
1.386857196E0,-6.963114142E-1,6.939185619E0,7.326822758E0
1.389268238E0,-7.058826685E-1,6.967899323E0,7.310073376E0
1.391679227E0,-6.939185858E-1,6.955935478E0,7.300501823E0
1.394090269E0,-6.867401004E-1,6.958328247E0,7.274180889E0
1.396501259E0,-6.795616150E-1,6.965506554E0,7.271788120E0
1.398912300E0,-6.819544435E-1,6.948757172E0,7.276573658E0
1.401323290E0,-6.604190469E-1,6.934400082E0,7.298109055E0
1.403734332E0,-6.364908218E-1,6.920042992E0,7.290930748E0
1.406145373E0,-6.005984545E-1,6.936792850E0,7.269395351E0
1.408556363E0,-5.647061467E-1,6.920042992E0,7.257431030E0
1.410967404E0,-5.240281820E-1,6.912864685E0,7.219145775E0
1.413378394E0,-5.168496966E-1,6.900900364E0,7.192824841E0
1.415789436E0,-4.977070987E-1,6.915257454E0,7.178467751E0
1.418200477E0,-5.120640397E-1,6.922435760E0,7.159325123E0
1.420611467E0,-5.288137794E-1,6.941578388E0,7.130611420E0
1.423022509E0,-5.551348329E-1,6.939185619E0,7.142575741E0
1.425433498E0,-5.910272002E-1,6.943971157E0,7.149754047E0
1.427844540E0,-6.149554253E-1,6.951149940E0,7.168896675E0
1.430255582E0,-6.628118753E-1,6.958328247E0,7.154539585E0
1.432666571E0,-7.010970116E-1,6.989434719E0,7.142575741E0
1.435077613E0,-7.561319470E-1,7.015756130E0,7.140182972E0
1.437488602E0,-8.135597110E-1,7.049255371E0,7.137789726E0
1.439899644E0,-8.542376757E-1,7.094718933E0,7.123433113E0
1.442310686E0,-8.805587292E-1,7.113861561E0,7.135396957E0
1.444721675E0,-9.092726111E-1,7.144968510E0,7.164111137E0
1.447132717E0,-9.427721500E-1,7.180860519E0,7.233502865E0
1.449543707E0,-9.571290612E-1,7.207181931E0,7.278966427E0
1.451954748E0,-9.571290612E-1,7.216753006E0,7.302894592E0
1.454365738E0,-9.499505758E-1,7.233502865E0,7.326822758E0
1.456776779E0,-9.547362328E-1,7.233502865E0,7.362715244E0
1.459187821E0,-9.762716293E-1,7.238288403E0,7.412964344E0
1.461598811E0,-9.930213690E-1,7.247859955E0,7.415357590E0
1.464009852E0,-9.810572863E-1,7.290930748E0,7.415357590E0
1.466420842E0,-9.523434043E-1,7.283751965E0,7.422535896E0
1.468831884E0,-9.499505758E-1,7.286144733E0,7.439285755E0
1.471242925E0,-9.355936646E-1,7.278966427E0,7.465606689E0
1.473653915E0,-9.308080077E-1,7.252645493E0,7.494320393E0
1.476064957E0,-9.188438654E-1,7.231110096E0,7.501499176E0
1.478475946E0,-8.853443861E-1,7.233502865E0,7.501499176E0
1.480886988E0,-8.709874153E-1,7.211967468E0,7.470392227E0
1.483297977E0,-7.968099117E-1,7.195217609E0,7.405786037E0
1.485709019E0,-6.508477330E-1,7.176074982E0,7.295716286E0
1.488120061E0,-5.647061467E-1,7.144968510E0,7.302894592E0
1.490531050E0,-6.125625968E-1,7.101897717E0,7.381857872E0
1.492942092E0,-6.652047038E-1,7.037291527E0,7.451249599E0
1.495353082E0,-6.939185858E-1,6.979863644E0,7.489534855E0
1.497764123E0,-6.675975323E-1,6.939185619E0,7.482356548E0
1.500175165E0,-6.269195080E-1,6.929614544E0,7.398607731E0
1.502586154E0,-5.599204898E-1,6.910471916E0,7.259823799E0
1.504997196E0,-5.120640397E-1,6.905686378E0,7.154539585E0
1.507408186E0,-4.546363056E-1,6.881757736E0,7.077969551E0
1.509819227E0,-3.996013701E-1,6.848258495E0,7.049255371E0
1.512230269E0,-3.684946895E-1,6.812366009E0,7.054041386E0
1.514641259E0,-3.110669553E-1,6.764509678E0,7.066005230E0
1.517052300E0,-2.632105052E-1,6.728617191E0,7.087540627E0
1.519463290E0,-2.009970993E-1,6.680760860E0,7.075576782E0
1.521874332E0,-1.435693651E-1,6.649653912E0,7.073183537E0
1.524285373E0,-6.460621208E-2,6.630511761E0,7.061219692E0
1.526696363E0,-7.178467698E-3,6.592226505E0,7.032505512E0
1.529107404E0,5.264209956E-2,6.568298340E0,6.999006271E0
1.531518394E0,8.614161611E-2,6.556334019E0,6.965506554E0
1.533929436E0,1.172483116E-1,6.515655994E0,6.946363926E0
1.536340477E0,1.387837082E-1,6.489335060E0,6.943971157E0
1.538751467E0,1.220339537E-1,6.470192432E0,6.943971157E0
1.541162509E0,1.172483116E-1,6.465406895E0,6.948757172E0
1.543573498E0,1.028913707E-1,6.451049805E0,6.960721016E0
1.545984540E0,1.124626622E-1,6.455835342E0,6.963113785E0
1.548395529E0,1.196411327E-1,6.458228111E0,6.946363926E0
1.550806571E0,1.196411327E-1,6.479763508E0,6.943971157E0
1.553217613E0,9.810572863E-2,6.503692150E0,6.922435760E0
1.555628602E0,9.571290761E-2,6.513263226E0,6.922435760E0
1.558039644E0,8.135596663E-2,6.532405853E0,6.929614544E0
1.560450634E0,6.460621208E-2,6.575476646E0,6.953542709E0
1.562861675E0,2.632104978E-2,6.589833736E0,6.987041950E0
1.565272717E0,-2.392822644E-3,6.597012043E0,7.027719975E0
1.567683707E0,-4.785645381E-2,6.613761902E0,7.056434155E0
1.570094748E0,-8.853443712E-2,6.618547440E0,7.061219692E0
1.572505738E0,-1.124626622E-1,6.637690067E0,7.054041386E0
1.574916779E0,-1.555334777E-1,6.664011002E0,7.066005230E0
1.577327769E0,-1.938186288E-1,6.673582554E0,7.082755089E0
1.579738811E0,-2.153540403E-1,6.704689026E0,7.092326164E0
1.582149852E0,-2.201396823E-1,6.721438885E0,7.113861561E0
1.584560842E0,-2.416750938E-1,6.750152588E0,7.130611420E0
1.586971884E0,-2.751746178E-1,6.793223381E0,7.152146816E0
1.589382873E0,-3.062812984E-1,6.819544315E0,7.176074982E0
1.591793915E0,-3.373879790E-1,6.838686943E0,7.185646534E0
1.594204957E0,-3.565305769E-1,6.850651264E0,7.183253765E0
1.596615946E0,-3.876372576E-1,6.845865726E0,7.188039303E0
1.599026988E0,-4.450650215E-1,6.872186661E0,7.178467751E0
1.601437977E0,-4.833501875E-1,6.917650223E0,7.154539585E0
1.603849019E0,-5.120640397E-1,6.936792850E0,7.164111137E0
1.606260061E0,-5.479564071E-1,6.941578388E0,7.204789162E0
1.608671050E0,-5.766702294E-1,6.953542709E0,7.247859955E0
1.611082092E0,-6.029912829E-1,6.955935478E0,7.302894592E0
1.613493082E0,-6.221339107E-1,6.960721016E0,7.326822758E0
1.615904123E0,-5.958128572E-1,6.958328247E0,7.353144169E0
1.618315113E0,-5.742774606E-1,6.963113785E0,7.353144169E0
1.620726154E0,-5.551348329E-1,6.960721016E0,7.341179848E0
1.623137196E0,-5.144568682E-1,6.970292568E0,7.319644451E0
1.625548186E0,-5.288137794E-1,6.977470875E0,7.334001541E0
1.627959227E0,-5.024927258E-1,6.975078106E0,7.334001541E0
1.630370217E0,-4.713860750E-1,6.955935478E0,7.360322475E0
1.632781259E0,-4.450650215E-1,6.960721016E0,7.401000500E0
1.635192300E0,-4.283152521E-1,6.958328247E0,7.444071293E0
1.637603290E0,-4.378865361E-1,6.958328247E0,7.465606689E0
1.640014332E0,-4.187439680E-1,6.963113785E0,7.475177765E0
1.642425321E0,-4.187439680E-1,6.965506554E0,7.472784996E0
1.644836363E0,-4.283152521E-1,6.979863644E0,7.458428383E0
1.647247404E0,-4.426721931E-1,6.987041950E0,7.451249599E0
1.649658394E0,-4.737788737E-1,6.987041950E0,7.403393269E0
1.652069436E0,-5.216353536E-1,6.987041950E0,7.362715244E0
1.654480425E0,-5.670989752E-1,6.967899323E0,7.334001541E0
1.656891467E0,-6.245267391E-1,6.972685337E0,7.314858913E0
1.659302457E0,-6.795616150E-1,6.967899323E0,7.298109055E0
1.661713498E0,-7.154539824E-1,6.975078106E0,7.305287361E0
1.664124540E0,-7.609176040E-1,6.977470875E0,7.307680130E0
1.666535529E0,-7.848458290E-1,6.991827965E0,7.295716286E0
1.668946571E0,-8.350951076E-1,7.037291527E0,7.274180889E0
1.671357561E0,-8.901300430E-1,7.051648140E0,7.257431030E0
1.673768602E0,-9.308080077E-1,7.101897717E0,7.243073940E0
1.676179644E0,-9.427721500E-1,7.123433113E0,7.240681171E0
1.678590634E0,-9.379864931E-1,7.137789726E0,7.262216568E0
1.681001675E0,-9.403793216E-1,7.128218651E0,7.293323517E0
1.683412665E0,-9.403793216E-1,7.111468792E0,7.314858913E0
1.685823707E0,-9.260223508E-1,7.128218651E0,7.314858913E0
1.688234748E0,-9.212366939E-1,7.128218651E0,7.302894592E0
1.690645738E0,-9.164510965E-1,7.135396957E0,7.271788120E0
1.693056779E0,-9.164510965E-1,7.142575741E0,7.250252724E0
1.695467769E0,-9.284151793E-1,7.147361279E0,7.247859955E0
1.697878811E0,-9.379864931E-1,7.161718369E0,7.245467186E0
1.700289852E0,-9.116654396E-1,7.159325123E0,7.262216568E0
1.702700842E0,-8.853443861E-1,7.159325123E0,7.295716286E0
1.705111884E0,-8.398807645E-1,7.149754047E0,7.317251682E0
1.707522873E0,-7.728816867E-1,7.140182972E0,7.331608772E0
1.709933915E0,-7.178468108E-1,7.140182972E0,7.336394310E0
1.712344904E0,-6.723831892E-1,7.130611420E0,7.329215527E0
1.714755946E0,-6.053841114E-1,7.097112179E0,7.319644451E0
1.717166988E0,-5.647061467E-1,7.082755089E0,7.290930748E0
1.719577977E0,-5.623133183E-1,7.066005230E0,7.235895634E0
1.721989019E0,-5.455635786E-1,7.042077065E0,7.190432072E0
1.724400009E0,-5.144568682E-1,7.006184578E0,7.142575741E0
1.726811050E0,-4.881358147E-1,6.963113785E0,7.111468792E0
1.729222092E0,-4.689932466E-1,6.922435760E0,7.089933395E0
1.731633082E0,-4.378865361E-1,6.896114826E0,7.068397999E0
1.734044123E0,-4.235295951E-1,6.869793892E0,7.025327206E0
1.736455113E0,-3.924229145E-1,6.867401123E0,6.982256413E0
1.738866154E0,-3.804588020E-1,6.857829571E0,6.939185619E0
1.741277196E0,-3.972085714E-1,6.843472958E0,6.881757736E0
1.743688186E0,-4.067798555E-1,6.838686943E0,6.838686943E0
1.746099227E0,-4.211367965E-1,6.831508636E0,6.800402164E0
1.748510217E0,-4.450650215E-1,6.819544315E0,6.766902447E0
1.750921259E0,-4.522434771E-1,6.795616150E0,6.771687984E0
1.753332300E0,-4.546363056E-1,6.790830612E0,6.778866768E0
1.755743290E0,-4.474578202E-1,6.790830612E0,6.795616150E0
1.758154332E0,-4.522434771E-1,6.786045074E0,6.826723099E0
1.760565321E0,-4.546363056E-1,6.762116909E0,6.853044033E0
1.762976363E0,-4.378865361E-1,6.745367050E0,6.898507595E0
1.765387352E0,-4.283152521E-1,6.742974281E0,6.917650223E0
1.767798394E0,-3.948157430E-1,6.742974281E0,6.939185619E0
1.770209436E0,-3.732803464E-1,6.747759819E0,6.953542709E0
1.772620425E0,-3.517449200E-1,6.747759819E0,6.963113785E0
1.775031467E0,-3.326023519E-1,6.754938126E0,6.975078106E0
1.777442457E0,-2.943171859E-1,6.735795975E0,6.984649181E0
1.779853498E0,-2.799602449E-1,6.742974281E0,7.001399040E0
1.782264540E0,-2.895315289E-1,6.728617191E0,7.042077065E0
1.784675529E0,-3.038884699E-1,6.723831654E0,7.073183537E0
1.787086571E0,-3.373879790E-1,6.733402729E0,7.087540627E0
1.789497561E0,-3.804588020E-1,6.735795975E0,7.046862602E0
1.791908602E0,-4.378865361E-1,6.740581512E0,6.967899323E0
1.794319644E0,-4.929214716E-1,6.726224422E0,6.869793892E0
1.796730634E0,-5.240281820E-1,6.723831654E0,6.778866768E0
1.799141675E0,-5.742774606E-1,6.714260101E0,6.709474564E0
1.801552665E0,-6.364908218E-1,6.678368092E0,6.644868374E0
1.803963707E0,-6.556333899E-1,6.635297298E0,6.654439926E0
1.806374696E0,-6.484549642E-1,6.606583118E0,6.697510719E0
1.808785738E0,-6.125625968E-1,6.575476646E0,6.762116909E0
1.811196779E0,-5.431707501E-1,6.561119556E0,6.855436802E0
1.813607769E0,-4.785645306E-1,6.546762943E0,6.927221775E0
1.816018811E0,-3.756731451E-1,6.544369698E0,6.790830612E0
1.818429800E0,-2.560320199E-1,6.604190350E0,6.716653347E0
1.820840842E0,-2.488535494E-1,6.628118515E0,6.886543751E0
1.823251884E0,-1.986042857E-1,6.582654953E0,7.044469833E0
1.825662873E0,-1.603191197E-1,6.563512325E0,7.082755089E0
1.828073915E0,-1.435693651E-1,6.582654953E0,7.058826923E0
1.830484904E0,-1.603191197E-1,6.652047157E0,7.022934437E0
1.832895946E0,-2.153540403E-1,6.685546398E0,7.020541668E0
1.835306988E0,-2.656033039E-1,6.709474564E0,7.022934437E0
1.837717977E0,-3.206382394E-1,6.697510719E0,7.037291527E0
1.840129019E0,-3.876372576E-1,6.656832695E0,7.075576782E0
1.842540009E0,-4.450650215E-1,6.577869415E0,7.121040344E0
1.844951050E0,-4.929214716E-1,6.503692150E0,7.113861561E0
1.847362092E0,-5.192425251E-1,6.434299946E0,7.027719975E0
1.849773082E0,-5.670989752E-1,6.364908218E0,6.920042992E0
1.852184123E0,-6.532405615E-1,6.293123722E0,6.790830612E0
1.854595113E0,-8.135597110E-1,6.190232277E0,6.644868374E0
1.857006154E0,-9.810572863E-1,5.984449387E0,6.508477688E0
1.859417196E0,-1.172483087E0,5.606383324E0,6.451049805E0
1.861828186E0,-9.308080077E-1,4.034298897E0,7.128218651E0
1.864239227E0,-8.997012973E-1,2.876172781E0,8.640482903E0
1.866650217E0,-1.110269666E0,2.622533560E0,9.296115875E0
1.869061259E0,-1.131805062E0,2.411965132E0,9.128618240E0
1.871472248E0,-1.124626637E0,2.294716835E0,8.731410027E0
1.873883290E0,-1.016949654E0,2.170290232E0,8.209774017E0
1.876294332E0,-8.901300430E-1,2.021935225E0,7.668996811E0
1.878705321E0,-7.992027402E-1,1.931007862E0,7.195217609E0
1.881116363E0,-7.058826685E-1,1.864008784E0,6.766902447E0
1.883527352E0,-6.197410822E-1,1.806581140E0,6.448657036E0
1.885938394E0,-5.288137794E-1,1.753939033E0,6.223731518E0
1.888349384E0,-4.642075896E-1,1.744367719E0,6.137589931E0
1.890760425E0,-4.522434771E-1,1.741974831E0,6.202196121E0
1.893171467E0,-4.426721931E-1,1.761117458E0,6.307480335E0
1.895582457E0,-4.498506486E-1,1.756331801E0,6.417550564E0
1.897993498E0,-4.259224236E-1,1.792224169E0,6.522834301E0
1.900404488E0,-4.331009090E-1,1.808973908E0,6.625725746E0
1.902815529E0,-4.402793646E-1,1.816152334E0,6.750152588E0
1.905226571E0,-4.378865361E-1,1.842473388E0,6.862615108E0
1.907637561E0,-4.450650215E-1,1.835294962E0,6.965506554E0
1.910048602E0,-4.426721931E-1,1.840080619E0,7.063612461E0
1.912459592E0,-4.259224236E-1,1.842473388E0,7.142575741E0
1.914870634E0,-4.307080805E-1,1.854437590E0,7.233502865E0
1.917281675E0,-4.187439680E-1,1.828116536E0,7.307680130E0
1.919692665E0,-4.019941986E-1,1.811366796E0,7.381857872E0
1.922103707E0,-3.996013701E-1,1.801795483E0,7.456035137E0
1.924514696E0,-3.948157430E-1,1.785045743E0,7.513463020E0
1.926925738E0,-3.732803464E-1,1.751546144E0,7.573283672E0
1.929336779E0,-3.756731451E-1,1.737189293E0,7.633104324E0
1.931747769E0,-3.684946895E-1,1.694118381E0,7.666603565E0
1.934158811E0,-3.373879790E-1,1.653440475E0,7.680960655E0
1.936569800E0,-3.158525825E-1,1.631905079E0,7.700103283E0
1.938980842E0,-3.134597540E-1,1.596012712E0,7.731209755E0
1.941391832E0,-3.062812984E-1,1.538584948E0,7.733603001E0
1.943802873E0,-2.871387303E-1,1.473978758E0,7.755138397E0
1.946213915E0,-2.847459018E-1,1.435693622E0,7.757531166E0
1.948624904E0,-2.727817893E-1,1.399801254E0,7.745566845E0
1.951035946E0,-2.512463629E-1,1.332802176E0,7.750352383E0
1.953446988E0,-2.512463629E-1,1.284945726E0,7.726424217E0
1.955857977E0,-2.488535494E-1,1.210768223E0,7.712067604E0
1.958269019E0,-2.392822653E-1,1.153340459E0,7.712067604E0
1.960680009E0,-2.368894368E-1,1.100698471E0,7.716853142E0
1.963091050E0,-2.225325108E-1,1.062413216E0,7.702496052E0
1.965502040E0,-2.009970993E-1,9.930213690E-1,7.702496052E0
1.967913082E0,-1.866401732E-1,9.403793216E-1,7.704888821E0
1.970324123E0,-1.818545163E-1,8.805587292E-1,7.707281590E0
1.972735113E0,-1.818545163E-1,8.279166222E-1,7.724031448E0
1.975146154E0,-1.698904037E-1,7.752745152E-1,7.759923935E0
1.977557144E0,-1.722832322E-1,7.393822074E-1,7.791030407E0
1.979968186E0,-1.579262912E-1,6.819544435E-1,7.843672752E0
1.982379227E0,-1.603191197E-1,6.436693072E-1,7.901100159E0
1.984790217E0,-1.627119333E-1,5.958128572E-1,7.965706348E0
1.987201259E0,-1.674975902E-1,5.431707501E-1,8.039883614E0
1.989612248E0,-1.603191197E-1,5.048855543E-1,8.137989998E0
1.992023290E0,-1.746760458E-1,4.618147612E-1,8.236095428E0
1.994434332E0,-1.770688742E-1,4.187439680E-1,8.334200859E0
1.996845321E0,-1.866401732E-1,3.708875179E-1,8.463413239E0
1.999256363E0,-1.794617027E-1,3.254238665E-1,8.595019341E0
2.001667352E0,-1.674975902E-1,2.943171859E-1,8.721838951E0
2.004078394E0,-1.914258152E-1,2.536391914E-1,8.855836868E0
2.006489384E0,-1.938186288E-1,2.201396823E-1,8.999405861E0
2.008900425E0,-2.057827413E-1,1.555334777E-1,9.142974854E0
2.011311467E0,-2.153540403E-1,1.268195957E-1,9.257830620E0
2.013722457E0,-2.273181528E-1,8.374879509E-2,9.406186104E0
2.016133498E0,-2.488535494E-1,3.828516230E-2,9.542576790E0
2.018544488E0,-2.632105052E-1,-2.392822644E-3,9.674181938E0
2.020955529E0,-2.608176768E-1,-3.110669367E-2,9.805787086E0
2.023366571E0,-2.871387303E-1,-8.135596663E-2,9.954142570E0
2.025777561E0,-2.991028428E-1,-1.411765367E-1,1.010249710E1
2.028188602E0,-3.230310678E-1,-1.794617027E-1,1.023888779E1
2.030599592E0,-3.302095234E-1,-2.297109663E-1,1.036810017E1
2.033010634E0,-3.469592929E-1,-2.656033039E-1,1.050449181E1
2.035421675E0,-3.613162339E-1,-2.943171859E-1,1.065523911E1
2.037832665E0,-3.756731451E-1,-3.589234054E-1,1.079162979E1
2.040243707E0,-4.043870270E-1,-4.163511395E-1,1.092084217E1
2.042654696E0,-4.307080805E-1,-4.354937077E-1,1.105005455E1
2.045065738E0,-4.450650215E-1,-4.666004181E-1,1.116730309E1
2.047476779E0,-4.594219327E-1,-4.977070987E-1,1.128215885E1
2.049887769E0,-4.785645306E-1,-5.312066078E-1,1.138983536E1
2.052298811E0,-4.977070987E-1,-5.886343718E-1,1.149272728E1
2.054709800E0,-5.240281820E-1,-6.149554253E-1,1.159561825E1
2.057120842E0,-5.407779217E-1,-6.293123364E-1,1.165304661E1
2.059531832E0,-5.599204898E-1,-6.723831892E-1,1.174397373E1
2.061942873E0,-5.527420044E-1,-7.130611539E-1,1.181815147E1
2.064353915E0,-5.838487148E-1,-7.417750359E-1,1.188036442E1
2.066764904E0,-6.029912829E-1,-7.824530005E-1,1.194257736E1
2.069175946E0,-6.149554253E-1,-7.920243144E-1,1.199761295E1
2.071586936E0,-6.221339107E-1,-8.183453679E-1,1.205504036E1
2.073997977E0,-6.556333899E-1,-8.350951076E-1,1.210050392E1
2.076409019E0,-6.819544435E-1,-8.590233326E-1,1.213878918E1
2.078820009E0,-6.819544435E-1,-8.853443861E-1,1.219143105E1
2.081231050E0,-6.819544435E-1,-8.949156404E-1,1.222014523E1
2.083642040E0,-6.987041831E-1,-9.020941257E-1,1.224885941E1
2.086053082E0,-6.987041831E-1,-9.260223508E-1,1.227517986E1
2.088464123E0,-7.154539824E-1,-9.475577474E-1,1.231107235E1
2.090875113E0,-7.250252366E-1,-9.451649189E-1,1.232782269E1
2.093286154E0,-7.274180651E-1,-9.714859724E-1,1.235175037E1
2.095697144E0,-7.417750359E-1,-9.810572863E-1,1.236371422E1
2.098108186E0,-7.441678643E-1,-9.810572863E-1,1.239721394E1
2.100519227E0,-7.417750359E-1,-9.906286001E-1,1.242114258E1
2.102930217E0,-7.513462901E-1,-9.882357717E-1,1.244746304E1
2.105341259E0,-7.585247755E-1,-9.738788009E-1,1.247617722E1
2.107752248E0,-7.585247755E-1,-9.714859724E-1,1.249771309E1
2.110163290E0,-7.465606928E-1,-9.786644578E-1,1.254317665E1
2.112574332E0,-7.489534616E-1,-9.882357717E-1,1.257906818E1
2.114985321E0,-7.298108935E-1,-9.906286001E-1,1.262213898E1
2.117396363E0,-7.489534616E-1,-9.858429432E-1,1.265563869E1
2.119807352E0,-7.609176040E-1,-9.786644578E-1,1.270828152E1
2.122218394E0,-7.537391186E-1,-9.834501147E-1,1.274895859E1
2.124629436E0,-7.513462901E-1,-9.762716293E-1,1.280160141E1
2.127040425E0,-7.489534616E-1,-9.667003751E-1,1.284467220E1
2.129451467E0,-7.393822074E-1,-9.403793216E-1,1.290209961E1
2.131862457E0,-7.417750359E-1,-9.236295223E-1,1.297867012E1
2.134273498E0,-7.250252366E-1,-9.332008362E-1,1.302652645E1
2.136684488E0,-7.322037220E-1,-9.140582681E-1,1.307438278E1
2.139095529E0,-7.058826685E-1,-8.781659007E-1,1.312223911E1
2.141506571E0,-6.987041831E-1,-8.805587292E-1,1.317488194E1
2.143917561E0,-6.987041831E-1,-8.614161611E-1,1.322513103E1
2.146328602E0,-6.723831892E-1,-8.350951076E-1,1.328973675E1
2.148739592E0,-6.795616150E-1,-8.207381964E-1,1.333998585E1
2.151150634E0,-6.723831892E-1,-8.183453679E-1,1.339023590E1
2.153561675E0,-6.436693072E-1,-7.896314859E-1,1.343330669E1
2.155972665E0,-6.221339107E-1,-7.776673436E-1,1.346680546E1
2.158383707E0,-6.269195080E-1,-7.465606928E-1,1.348355579E1
2.160794696E0,-6.149554253E-1,-7.202396393E-1,1.348834133E1
2.163205738E0,-5.838487148E-1,-6.747759581E-1,1.349312687E1
2.165616779E0,-5.694918036E-1,-6.604190469E-1,1.350987625E1
2.168027769E0,-5.503492355E-1,-6.293123364E-1,1.352423382E1
2.170438811E0,-5.431707501E-1,-5.982056856E-1,1.354098320E1
2.172849800E0,-5.192425251E-1,-5.527420044E-1,1.356251907E1
2.175260842E0,-5.168496966E-1,-5.144568682E-1,1.357448292E1
2.177671884E0,-4.953143001E-1,-4.881358147E-1,1.358644676E1
2.180082873E0,-4.833501875E-1,-4.354937077E-1,1.358883953E1
2.182493915E0,-4.689932466E-1,-3.972085714E-1,1.358883953E1
2.184904904E0,-4.354937077E-1,-3.804588020E-1,1.358883953E1
2.187315946E0,-4.115654826E-1,-3.158525825E-1,1.357448292E1
2.189726936E0,-4.163511395E-1,-2.847459018E-1,1.355773354E1
2.192137977E0,-4.091726840E-1,-2.512463629E-1,1.353619766E1
2.194549019E0,-3.900300860E-1,-1.938186288E-1,1.350509071E1
2.196960009E0,-3.756731451E-1,-1.674975902E-1,1.347637749E1
2.199371050E0,-3.661018610E-1,-1.244267747E-1,1.343809223E1
2.201782040E0,-3.517449200E-1,-8.135596663E-2,1.341416359E1
2.204193082E0,-3.397808075E-1,-3.349951655E-2,1.336630726E1
2.206604123E0,-3.445664644E-1,1.914258115E-2,1.332084370E1
2.209015113E0,-3.349951804E-1,5.024927482E-2,1.327059460E1
2.211426154E0,-3.158525825E-1,1.052841991E-1,1.322273827E1
2.213837144E0,-3.302095234E-1,1.411765367E-1,1.314856052E1
2.216248186E0,-3.254238665E-1,2.009970993E-1,1.308873940E1
2.218659227E0,-3.110669553E-1,2.536391914E-1,1.303131199E1
2.221070217E0,-3.182454109E-1,3.038884699E-1,1.296670628E1
2.223481259E0,-3.134597540E-1,3.373879790E-1,1.290449238E1
2.225892248E0,-3.206382394E-1,3.948157430E-1,1.283510113E1
2.228303290E0,-3.278166950E-1,4.378865361E-1,1.278724384E1
2.230714332E0,-3.421736360E-1,4.785645306E-1,1.271306705E1
2.233125321E0,-3.493520916E-1,5.407779217E-1,1.264367485E1
2.235536363E0,-3.541377485E-1,5.694918036E-1,1.256231880E1
2.237947352E0,-3.637090325E-1,6.125625968E-1,1.250010586E1
2.240358394E0,-3.972085714E-1,6.484549642E-1,1.245464230E1
2.242769436E0,-3.972085714E-1,6.963114142E-1,1.239960670E1
2.245180425E0,-4.115654826E-1,7.393822074E-1,1.235414314E1
2.247591467E0,-4.139583111E-1,7.800601721E-1,1.229671574E1
2.250002457E0,-4.450650215E-1,8.159525394E-1,1.224885941E1
2.252413498E0,-4.474578202E-1,8.374879360E-1,1.219143105E1
2.254824540E0,-4.594219327E-1,8.757730722E-1,1.214836025E1
2.257235529E0,-4.857429862E-1,9.044869542E-1,1.210289669E1
2.259646571E0,-4.977070987E-1,9.475577474E-1,1.205504036E1
2.262057561E0,-5.144568682E-1,9.810572863E-1,1.200957680E1
2.264468602E0,-5.288137794E-1,1.009771109E0,1.196889877E1
2.266879592E0,-5.359922647E-1,1.050449133E0,1.194018459E1
2.269290634E0,-5.455635786E-1,1.086341500E0,1.189711380E1
2.271701675E0,-5.575276613E-1,1.105484009E0,1.186840057E1
2.274112665E0,-5.814558864E-1,1.143769264E0,1.183729362E1
2.276523707E0,-6.029912829E-1,1.155733347E0,1.179900837E1
2.278934748E0,-6.364908218E-1,1.182054400E0,1.177268696E1
2.281345738E0,-6.317051649E-1,1.174875975E0,1.173918819E1
2.283756779E0,-6.364908218E-1,1.201196909E0,1.169611740E1
2.286167769E0,-6.819544435E-1,1.227517962E0,1.165783215E1
2.288578811E0,-6.891329288E-1,1.239482164E0,1.163390350E1
2.290989800E0,-6.939185858E-1,1.246660590E0,1.161236858E1
2.293400842E0,-7.082754970E-1,1.249053478E0,1.157408333E1
2.295811884E0,-7.106683254E-1,1.246660590E0,1.154536915E1
2.298222873E0,-7.058826685E-1,1.275374413E0,1.150947666E1
2.300633915E0,-7.082754970E-1,1.270588875E0,1.146401310E1
2.303044957E0,-7.274180651E-1,1.249053478E0,1.142333508E1
2.305455946E0,-7.274180651E-1,1.251446247E0,1.138504982E1
2.307866988E0,-7.369893789E-1,1.237089276E0,1.136112213E1
2.310277977E0,-7.250252366E-1,1.234696507E0,1.131087303E1
2.312689019E0,-7.226324677E-1,1.217946768E0,1.127737331E1
2.315100009E0,-7.393822074E-1,1.225125194E0,1.123669529E1
2.317511050E0,-7.393822074E-1,1.215553880E0,1.118883896E1
2.319922092E0,-7.298108935E-1,1.177268744E0,1.115294647E1
2.322333082E0,-7.274180651E-1,1.167697430E0,1.111705399E1
2.324744123E0,-7.178468108E-1,1.148554921E0,1.107637596E1
2.327155113E0,-7.178468108E-1,1.117448211E0,1.104048347E1
2.329566154E0,-7.034898400E-1,1.086341500E0,1.101177025E1
2.331977144E0,-6.963114142E-1,1.045663476E0,1.097348499E1
2.334388186E0,-6.795616150E-1,1.019342422E0,1.094955635E1
2.336799227E0,-6.795616150E-1,9.954141974E-1,1.091844940E1
2.339210217E0,-6.675975323E-1,9.690931439E-1,1.089691448E1
2.341621259E0,-6.628118753E-1,9.212366939E-1,1.088016415E1
2.344032248E0,-6.340979934E-1,8.997012973E-1,1.086102200E1
2.346443290E0,-6.317051649E-1,8.518448472E-1,1.086102200E1
2.348854332E0,-6.149554253E-1,8.159525394E-1,1.083948612E1
2.351265321E0,-5.886343718E-1,7.896314859E-1,1.083948612E1
2.353676363E0,-5.647061467E-1,7.561319470E-1,1.083948612E1
2.356087352E0,-5.479564071E-1,7.034898400E-1,1.084427261E1
2.358498394E0,-5.359922647E-1,6.628118753E-1,1.084905815E1
2.360909436E0,-5.192425251E-1,6.364908218E-1,1.084666538E1
2.363320425E0,-5.024927258E-1,6.005984545E-1,1.086341476E1
2.365731467E0,-4.881358147E-1,5.431707501E-1,1.087537861E1
2.368142457E0,-4.713860750E-1,4.857429862E-1,1.089691448E1
2.370553498E0,-4.642075896E-1,4.498506486E-1,1.090409279E1
2.372964540E0,-4.618147612E-1,3.876372576E-1,1.092802143E1
2.375375529E0,-4.378865361E-1,3.517449200E-1,1.095434189E1
2.377786571E0,-4.067798555E-1,3.014956415E-1,1.100459099E1
2.380197561E0,-3.924229145E-1,2.512463629E-1,1.102373409E1
2.382608602E0,-3.852444589E-1,1.962114573E-1,1.104048347E1
2.385019644E0,-3.637090325E-1,1.651047617E-1,1.106919765E1
2.387430634E0,-3.661018610E-1,1.148554832E-1,1.107398319E1
2.389841675E0,-3.517449200E-1,7.178468257E-2,1.110030460E1
2.392252665E0,-3.421736360E-1,1.914258115E-2,1.111944675E1
2.394663707E0,-3.302095234E-1,-3.110669367E-2,1.115773201E1
2.397074748E0,-3.230310678E-1,-8.853443712E-2,1.116012478E1
2.399485738E0,-3.302095234E-1,-1.387837082E-1,1.116969585E1
2.401896779E0,-3.014956415E-1,-1.938186288E-1,1.118644619E1
2.404307769E0,-2.895315289E-1,-2.368894368E-1,1.120319557E1
2.406718811E0,-2.823530734E-1,-2.967100143E-1,1.121994495E1
2.409129852E0,-2.823530734E-1,-3.373879790E-1,1.122951698E1
2.411540842E0,-2.560320199E-1,-3.876372576E-1,1.122233772E1
2.413951884E0,-2.775674164E-1,-4.259224236E-1,1.122233772E1
2.416362873E0,-2.799602449E-1,-4.785645306E-1,1.123430252E1
2.418773915E0,-2.656033039E-1,-5.240281820E-1,1.122951698E1
2.421184904E0,-2.847459018E-1,-5.670989752E-1,1.120798111E1
2.423595946E0,-2.775674164E-1,-6.149554253E-1,1.120319557E1
2.426006988E0,-2.679961324E-1,-6.484549642E-1,1.120080280E1
2.428417977E0,-2.727817893E-1,-6.963114142E-1,1.119601727E1
2.430829019E0,-2.943171859E-1,-7.441678643E-1,1.119123173E1
2.433240061E0,-2.919243574E-1,-7.752745152E-1,1.118883896E1
2.435651050E0,-2.895315289E-1,-8.207381964E-1,1.116491032E1
2.438062092E0,-2.943171859E-1,-8.398807645E-1,1.116251755E1
2.440473082E0,-2.847459018E-1,-8.709874153E-1,1.114098263E1
2.442884123E0,-2.943171859E-1,-9.068797827E-1,1.111944675E1
2.445295113E0,-2.991028428E-1,-9.451649189E-1,1.111705399E1
2.447706154E0,-3.062812984E-1,-9.619147182E-1,1.111705399E1
2.450117196E0,-3.134597540E-1,-1.016949654E0,1.111226845E1
2.452528186E0,-3.206382394E-1,-1.048056364E0,1.111226845E1
2.454939227E0,-3.421736360E-1,-1.067198873E0,1.109312534E1
2.457350217E0,-3.493520916E-1,-1.103091240E0,1.108594704E1
2.459761259E0,-3.637090325E-1,-1.129412293E0,1.108116150E1
2.462172300E0,-3.732803464E-1,-1.138983607E0,1.107876873E1
2.464583290E0,-3.900300860E-1,-1.162911773E0,1.107876873E1
2.466994332E0,-3.948157430E-1,-1.184447169E0,1.109073257E1
2.469405321E0,-3.924229145E-1,-1.210768223E0,1.108594704E1
2.471816363E0,-4.115654826E-1,-1.222732425E0,1.108594704E1
2.474227404E0,-4.378865361E-1,-1.241874933E0,1.107398319E1
2.476638394E0,-4.450650215E-1,-1.249053478E0,1.107159042E1
2.479049436E0,-4.331009090E-1,-1.272981644E0,1.108116150E1
2.481460425E0,-4.474578202E-1,-1.292124271E0,1.107876873E1
2.483871467E0,-4.594219327E-1,-1.299302697E0,1.105962658E1
2.486282509E0,-4.642075896E-1,-1.299302697E0,1.106201935E1
2.488693498E0,-4.833501875E-1,-1.299302697E0,1.105962658E1
2.491104540E0,-5.048855543E-1,-1.320838094E0,1.106441212E1
2.493515529E0,-5.264210105E-1,-1.325623751E0,1.106201935E1
2.495926571E0,-5.192425251E-1,-1.344766378E0,1.103809071E1
2.498337561E0,-5.288137794E-1,-1.344766378E0,1.103330517E1
2.500748602E0,-5.216353536E-1,-1.351944804E0,1.102373409E1
2.503159644E0,-5.359922647E-1,-1.383051515E0,1.100459099E1
2.505570634E0,-5.599204898E-1,-1.378265858E0,1.098544884E1
2.507981675E0,-5.623133183E-1,-1.371087432E0,1.095673466E1
2.510392665E0,-5.527420044E-1,-1.366301775E0,1.093998528E1
2.512803707E0,-5.647061467E-1,-1.368694544E0,1.090648556E1
2.515214748E0,-5.623133183E-1,-1.354337573E0,1.089691448E1
2.517625738E0,-5.718846321E-1,-1.373480201E0,1.087059307E1
2.520036779E0,-5.742774606E-1,-1.383051515E0,1.083709335E1
2.522447769E0,-5.862415433E-1,-1.366301775E0,1.078923702E1
2.524858811E0,-5.886343718E-1,-1.375872970E0,1.075334454E1
2.527269852E0,-5.790630579E-1,-1.371087432E0,1.070070267E1
2.529680842E0,-5.766702294E-1,-1.383051515E0,1.067198944E1
2.532091884E0,-5.862415433E-1,-1.344766378E0,1.064327526E1
2.534502873E0,-5.982056856E-1,-1.335195065E0,1.058824062E1
2.536913915E0,-6.005984545E-1,-1.337587833E0,1.056431198E1
2.539324957E0,-6.053841114E-1,-1.323230863E0,1.052363396E1
2.541735946E0,-5.862415433E-1,-1.323230863E0,1.048295593E1
2.544146988E0,-5.766702294E-1,-1.313659668E0,1.042552853E1
2.546557977E0,-5.647061467E-1,-1.306481123E0,1.037049294E1
2.548969019E0,-5.647061467E-1,-1.304088354E0,1.034177971E1
2.551380061E0,-5.647061467E-1,-1.301695466E0,1.029631615E1
2.553791050E0,-5.431707501E-1,-1.282552958E0,1.026999474E1
2.556202092E0,-5.383850932E-1,-1.268195987E0,1.021974564E1
2.558613082E0,-5.359922647E-1,-1.258624673E0,1.017428207E1
2.561024123E0,-5.335994363E-1,-1.256231904E0,1.013838959E1
2.563435165E0,-5.383850932E-1,-1.258624673E0,1.011446095E1
2.565846154E0,-5.359922647E-1,-1.249053478E0,1.008335495E1
2.568257196E0,-5.264210105E-1,-1.234696507E0,1.006181908E1
2.570668186E0,-5.048855543E-1,-1.198804140E0,1.003549862E1
2.573079227E0,-5.024927258E-1,-1.201196909E0,9.997213364E0
2.575490269E0,-4.785645306E-1,-1.194018483E0,9.968499184E0
2.577901259E0,-4.642075896E-1,-1.196411371E0,9.942177773E0
2.580312300E0,-4.761717021E-1,-1.182054400E0,9.927821159E0
2.582723290E0,-4.618147612E-1,-1.182054400E0,9.918250084E0
2.585134332E0,-4.689932466E-1,-1.172483087E0,9.894321442E0
2.587545321E0,-4.713860750E-1,-1.153340459E0,9.875179291E0
2.589956363E0,-4.546363056E-1,-1.138983607E0,9.868000984E0
2.592367404E0,-4.546363056E-1,-1.122233868E0,9.856036186E0
2.594778394E0,-4.426721931E-1,-1.134197950E0,9.848857880E0
2.597189436E0,-4.187439680E-1,-1.117448211E0,9.824930191E0
2.599600477E0,-4.091726840E-1,-1.095912814E0,9.808179855E0
2.602011467E0,-3.972085714E-1,-1.093519926E0,9.817750931E0
2.604422509E0,-3.900300860E-1,-1.103091240E0,9.810572624E0
2.606833498E0,-3.876372576E-1,-1.091127157E0,9.793823242E0
2.609244540E0,-3.828516304E-1,-1.071984529E0,9.793823242E0
2.611655529E0,-3.613162339E-1,-1.071984529E0,9.789037704E0
2.614066571E0,-3.589234054E-1,-1.067198873E0,9.781859398E0
2.616477613E0,-3.565305769E-1,-1.067198873E0,9.777072906E0
2.618888602E0,-3.326023519E-1,-1.040877819E0,9.760323524E0
2.621299644E0,-3.373879790E-1,-1.033699393E0,9.741181374E0
2.623710634E0,-3.373879790E-1,-1.004985452E0,9.729216576E0
2.626121675E0,-3.302095234E-1,-9.882357717E-1,9.719645500E0
2.628532717E0,-2.943171859E-1,-9.738788009E-1,9.705288887E0
2.630943707E0,-2.895315289E-1,-9.619147182E-1,9.681360245E0
2.633354748E0,-2.895315289E-1,-9.523434043E-1,9.655039787E0
2.635765738E0,-2.895315289E-1,-9.379864931E-1,9.633503914E0
2.638176779E0,-2.775674164E-1,-9.188438654E-1,9.619147301E0
2.640587769E0,-2.560320199E-1,-8.901300430E-1,9.600004196E0
2.642998811E0,-2.775674164E-1,-8.805587292E-1,9.580862045E0
2.645409852E0,-2.560320199E-1,-8.781659007E-1,9.559326172E0
2.647820842E0,-2.560320199E-1,-8.518448472E-1,9.525827408E0
2.650231884E0,-2.464607358E-1,-8.231309652E-1,9.509077072E0
2.652642925E0,-2.416750938E-1,-8.039883971E-1,9.487542152E0
2.655053915E0,-2.368894368E-1,-7.992027402E-1,9.466006279E0
2.657464957E0,-2.177468538E-1,-7.824530005E-1,9.427721024E0
2.659875946E0,-2.392822653E-1,-7.537391186E-1,9.401400566E0
2.662286988E0,-2.249253243E-1,-7.250252366E-1,9.365508080E0
2.664697977E0,-2.201396823E-1,-7.178468108E-1,9.348757744E0
2.667109019E0,-2.177468538E-1,-6.915257573E-1,9.322437286E0
2.669520061E0,-2.177468538E-1,-6.675975323E-1,9.312865257E0
2.671931050E0,-2.057827413E-1,-6.556333899E-1,9.288937569E0
2.674342092E0,-2.249253243E-1,-6.269195080E-1,9.269794464E0
2.676753082E0,-2.249253243E-1,-6.125625968E-1,9.257830620E0
2.679164123E0,-2.297109663E-1,-5.694918036E-1,9.236295700E0
2.681575165E0,-2.129612118E-1,-5.527420044E-1,9.226723671E0
2.683986154E0,-2.321037948E-1,-5.144568682E-1,9.209974289E0
2.686397196E0,-2.321037948E-1,-5.000999570E-1,9.193224907E0
2.688808186E0,-2.273181528E-1,-4.666004181E-1,9.190832138E0
2.691219227E0,-2.273181528E-1,-4.546363056E-1,9.178867340E0
2.693630269E0,-2.321037948E-1,-4.354937077E-1,9.186046600E0
2.696041259E0,-2.344966233E-1,-4.115654826E-1,9.181260109E0
2.698452300E0,-2.440679073E-1,-3.780659735E-1,9.171689034E0
2.700863290E0,-2.560320199E-1,-3.565305769E-1,9.183652878E0
2.703274332E0,-2.584248483E-1,-3.349951804E-1,9.183652878E0
2.705685373E0,-2.775674164E-1,-3.014956415E-1,9.190832138E0
2.708096363E0,-2.703889608E-1,-2.871387303E-1,9.190832138E0
2.710507404E0,-2.871387303E-1,-2.512463629E-1,9.205188751E0
2.712918394E0,-2.895315289E-1,-2.368894368E-1,9.221938133E0
2.715329436E0,-2.895315289E-1,-2.057827413E-1,9.221938133E0
2.717740477E0,-2.991028428E-1,-1.746760458E-1,9.229117393E0
2.720151467E0,-2.967100143E-1,-1.531406492E-1,9.243474007E0
2.722562509E0,-3.278166950E-1,-1.316052526E-1,9.262616158E0
2.724973498E0,-3.469592929E-1,-8.853443712E-2,9.272188187E0
2.727384540E0,-3.589234054E-1,-5.742774159E-2,9.279366493E0
2.729795582E0,-3.756731451E-1,-2.392822690E-2,9.291330338E0
2.732206571E0,-3.661018610E-1,-1.196411345E-2,9.300901413E0
2.734617613E0,-3.732803464E-1,1.674975827E-2,9.300901413E0
2.737028602E0,-4.067798555E-1,4.785645381E-2,9.315258980E0
2.739439644E0,-4.115654826E-1,7.178468257E-2,9.324830055E0
2.741850634E0,-4.283152521E-1,9.332008660E-2,9.336793900E0
2.744261675E0,-4.259224236E-1,1.052841991E-1,9.353543282E0
2.746672717E0,-4.402793646E-1,1.363908947E-1,9.353543282E0
2.749083707E0,-4.522434771E-1,1.627119333E-1,9.353543282E0
2.751494748E0,-4.737788737E-1,1.818545163E-1,9.370293617E0
2.753905790E0,-4.713860750E-1,2.177468538E-1,9.375079155E0
2.756316779E0,-4.785645306E-1,2.488535494E-1,9.377471924E0
2.758727821E0,-4.881358147E-1,2.751746178E-1,9.375079155E0
2.761138811E0,-4.809573591E-1,2.919243574E-1,9.389435768E0
2.763549852E0,-4.953143001E-1,3.014956415E-1,9.396614075E0
2.765960894E0,-5.192425251E-1,3.254238665E-1,9.408578873E0
2.768371884E0,-5.288137794E-1,3.397808075E-1,9.418149948E0
2.770782925E0,-5.312066078E-1,3.804588020E-1,9.415757179E0
2.773193915E0,-5.479564071E-1,4.067798555E-1,9.430113792E0
2.775604957E0,-5.359922647E-1,4.259224236E-1,9.442078590E0
2.778015946E0,-5.742774606E-1,4.426721931E-1,9.461220741E0
2.780426988E0,-5.694918036E-1,4.570291340E-1,9.485149384E0
2.782838029E0,-5.670989752E-1,4.809573591E-1,9.497113228E0
2.785249019E0,-5.694918036E-1,4.881358147E-1,9.504291534E0
2.787660061E0,-5.694918036E-1,5.072783828E-1,9.506684303E0
2.790071050E0,-5.766702294E-1,5.096712112E-1,9.535398483E0
2.792482092E0,-5.934200287E-1,5.359922647E-1,9.561718941E0
2.794893134E0,-6.077769399E-1,5.647061467E-1,9.592825890E0
2.797304123E0,-5.910272002E-1,5.886343718E-1,9.607182503E0
2.799715165E0,-5.958128572E-1,5.790630579E-1,9.631111145E0
2.802126154E0,-5.958128572E-1,6.029912829E-1,9.667003632E0
2.804537196E0,-5.862415433E-1,6.149554253E-1,9.700503349E0
2.806948238E0,-5.790630579E-1,6.197410822E-1,9.745966911E0
2.809359227E0,-5.886343718E-1,6.340979934E-1,9.777072906E0
2.811770269E0,-5.862415433E-1,6.436693072E-1,9.820143700E0
2.814181259E0,-5.718846321E-1,6.436693072E-1,9.868000984E0
2.816592300E0,-5.599204898E-1,6.484549642E-1,9.901499748E0
2.819003342E0,-5.599204898E-1,6.436693072E-1,9.942177773E0
2.821414332E0,-5.599204898E-1,6.628118753E-1,9.990034103E0
2.823825373E0,-5.527420044E-1,6.628118753E-1,1.004028416E1
2.826236363E0,-5.383850932E-1,6.532405615E-1,1.009771156E1
2.828647404E0,-5.431707501E-1,6.532405615E-1,1.015513897E1
2.831058446E0,-5.264210105E-1,6.556333899E-1,1.021017456E1
2.833469436E0,-5.192425251E-1,6.628118753E-1,1.026999474E1
2.835880477E0,-5.096712112E-1,6.532405615E-1,1.033220863E1
2.838291467E0,-5.120640397E-1,6.699903607E-1,1.039202881E1
2.840702509E0,-5.024927258E-1,6.580262184E-1,1.044467068E1
2.843113498E0,-4.953143001E-1,6.532405615E-1,1.050927734E1
2.845524540E0,-4.833501875E-1,6.412764788E-1,1.058345413E1
2.847935582E0,-4.809573591E-1,6.245267391E-1,1.064088249E1
2.850346571E0,-4.666004181E-1,6.197410822E-1,1.069591713E1
2.852757613E0,-4.546363056E-1,6.317051649E-1,1.075813103E1
2.855168602E0,-4.570291340E-1,6.125625968E-1,1.082512951E1
2.857579644E0,-4.259224236E-1,5.838487148E-1,1.089212894E1
2.859990686E0,-4.331009090E-1,5.838487148E-1,1.095912743E1
2.862401675E0,-4.115654826E-1,5.742774606E-1,1.103330517E1
2.864812717E0,-3.996013701E-1,5.599204898E-1,1.109073257E1
2.867223707E0,-3.780659735E-1,5.216353536E-1,1.115773201E1
2.869634748E0,-3.900300860E-1,5.000999570E-1,1.122712421E1
2.872045790E0,-3.589234054E-1,4.785645306E-1,1.129172993E1
2.874456779E0,-3.661018610E-1,4.594219327E-1,1.136112213E1
2.876867821E0,-3.517449200E-1,4.546363056E-1,1.142333508E1
2.879278811E0,-3.493520916E-1,4.283152521E-1,1.147597694E1
2.881689852E0,-3.421736360E-1,3.948157430E-1,1.153340530E1
2.884100894E0,-3.349951804E-1,3.637090325E-1,1.160758305E1
2.886511884E0,-3.206382394E-1,3.302095234E-1,1.166979599E1
2.888922925E0,-3.110669553E-1,3.134597540E-1,1.174636650E1
2.891333915E0,-3.182454109E-1,2.919243574E-1,1.179661560E1
2.893744957E0,-3.110669553E-1,2.656033039E-1,1.186600780E1
2.896155998E0,-3.110669553E-1,2.105683982E-1,1.193779182E1
2.898566988E0,-3.014956415E-1,1.914258152E-1,1.199282742E1
2.900978029E0,-3.062812984E-1,1.579262912E-1,1.206939697E1
2.903389019E0,-3.230310678E-1,1.316052526E-1,1.212203979E1
2.905800061E0,-3.349951804E-1,1.076770201E-1,1.219382381E1
2.908211102E0,-3.397808075E-1,6.939185411E-2,1.225364494E1
2.910622092E0,-3.278166950E-1,3.110669367E-2,1.233260822E1
2.913033134E0,-3.517449200E-1,-9.571290575E-3,1.239482117E1
2.915444175E0,-3.589234054E-1,-3.828516230E-2,1.246899891E1
2.917855165E0,-3.541377485E-1,-5.982056633E-2,1.254556942E1
2.920266207E0,-3.637090325E-1,-9.810572863E-2,1.261017513E1
2.922677196E0,-3.661018610E-1,-1.268195957E-1,1.267956734E1
2.925088238E0,-3.852444589E-1,-1.555334777E-1,1.275613785E1
2.927499227E0,-3.996013701E-1,-1.962114573E-1,1.283270741E1
2.929910269E0,-4.115654826E-1,-2.392822653E-1,1.289252853E1
2.932321311E0,-4.091726840E-1,-2.703889608E-1,1.295952702E1
2.934732300E0,-4.187439680E-1,-3.230310678E-1,1.302174091E1
2.937143342E0,-4.618147612E-1,-3.326023519E-1,1.309113312E1
2.939554332E0,-4.833501875E-1,-3.565305769E-1,1.316052437E1
2.941965373E0,-5.024927258E-1,-3.996013701E-1,1.325145149E1
2.944376415E0,-5.168496966E-1,-4.474578202E-1,1.332084370E1
2.946787404E0,-5.216353536E-1,-4.857429862E-1,1.338544941E1
2.949198446E0,-5.312066078E-1,-5.048855543E-1,1.343809223E1
2.951609436E0,-5.431707501E-1,-5.264210105E-1,1.350987625E1
2.954020477E0,-5.670989752E-1,-5.623133183E-1,1.357448292E1
2.956431519E0,-5.958128572E-1,-5.934200287E-1,1.363430309E1
2.958842509E0,-6.077769399E-1,-6.053841114E-1,1.368694592E1
2.961253550E0,-6.149554253E-1,-6.340979934E-1,1.375155163E1
2.963664540E0,-6.125625968E-1,-6.771687865E-1,1.378505135E1
2.966075582E0,-6.604190469E-1,-7.202396393E-1,1.382812214E1
2.968486571E0,-6.675975323E-1,-7.202396393E-1,1.387119293E1
2.970897613E0,-6.891329288E-1,-7.585247755E-1,1.390708542E1
2.973308654E0,-6.891329288E-1,-7.920243144E-1,1.394297791E1
2.975719644E0,-7.058826685E-1,-8.231309652E-1,1.398365593E1
2.978130686E0,-7.082754970E-1,-8.279166222E-1,1.400997639E1
2.980541675E0,-7.226324677E-1,-8.614161611E-1,1.403390503E1
2.982952717E0,-7.441678643E-1,-8.925228715E-1,1.406261826E1
2.985363759E0,-7.489534616E-1,-9.140582681E-1,1.408415413E1
2.987774748E0,-7.489534616E-1,-9.403793216E-1,1.409372520E1
2.990185790E0,-7.585247755E-1,-9.619147182E-1,1.410329628E1
2.992596779E0,-7.704889178E-1,-9.738788009E-1,1.411286831E1
2.995007821E0,-7.848458290E-1,-9.930213690E-1,1.409611797E1
2.997418863E0,-7.872386575E-1,-1.012163997E0,1.410568905E1
2.999829852E0,-7.872386575E-1,-1.026520967E0,1.410568905E1
3.002240894E0,-7.728816867E-1,-1.050449133E0,1.409611797E1
3.004651884E0,-7.872386575E-1,-1.062413216E0,1.409372520E1
3.007062925E0,-8.039883971E-1,-1.071984529E0,1.408893967E1
3.009473967E0,-7.944171429E-1,-1.100698471E0,1.408415413E1
3.011884957E0,-7.920243144E-1,-1.100698471E0,1.406022549E1
3.014295998E0,-7.920243144E-1,-1.110269666E0,1.404826164E1
3.016706988E0,-7.824530005E-1,-1.103091240E0,1.402672672E1
3.019118029E0,-7.728816867E-1,-1.115055323E0,1.401476192E1
3.021529071E0,-7.728816867E-1,-1.131805062E0,1.399561977E1
3.023940061E0,-7.585247755E-1,-1.122233868E0,1.397408390E1
3.026351102E0,-7.393822074E-1,-1.119840980E0,1.394297791E1
3.028762092E0,-7.417750359E-1,-1.122233868E0,1.392862034E1
3.031173134E0,-7.537391186E-1,-1.124626637E0,1.389990711E1
3.033584175E0,-7.298108935E-1,-1.124626637E0,1.387119293E1
3.035995165E0,-7.130611539E-1,-1.115055323E0,1.383530045E1
3.038406207E0,-6.939185858E-1,-1.115055323E0,1.381855106E1
3.040817196E0,-6.819544435E-1,-1.105484009E0,1.379462242E1
3.043228238E0,-6.580262184E-1,-1.095912814E0,1.375872993E1
3.045639279E0,-6.508477330E-1,-1.088734269E0,1.372523022E1
3.048050269E0,-6.436693072E-1,-1.079162955E0,1.369412422E1
3.050461311E0,-6.388836503E-1,-1.074377418E0,1.364866066E1
3.052872300E0,-6.125625968E-1,-1.055234790E0,1.362233925E1
3.055283342E0,-5.934200287E-1,-1.040877819E0,1.359601784E1
3.057694384E0,-5.886343718E-1,-1.028913736E0,1.355294704E1
3.060105373E0,-5.766702294E-1,-1.007378340E0,1.351226902E1
3.062516415E0,-5.551348329E-1,-9.930213690E-1,1.344766331E1
3.064927404E0,-5.359922647E-1,-9.523434043E-1,1.339980698E1
3.067338446E0,-5.264210105E-1,-9.308080077E-1,1.335434341E1
3.069749436E0,-5.144568682E-1,-8.997012973E-1,1.329930782E1
3.072160477E0,-4.929214716E-1,-8.757730722E-1,1.322991657E1
3.074571519E0,-4.977070987E-1,-8.518448472E-1,1.315095329E1
3.076982509E0,-4.809573591E-1,-8.207381964E-1,1.310548973E1
3.079393550E0,-4.737788737E-1,-7.944171429E-1,1.305524063E1
3.081804540E0,-4.522434771E-1,-7.441678643E-1,1.298345566E1
3.084215582E0,-4.426721931E-1,-7.274180651E-1,1.291167068E1
3.086626623E0,-4.091726840E-1,-6.939185858E-1,1.283031464E1
3.089037613E0,-4.019941986E-1,-6.580262184E-1,1.275135231E1
3.091448654E0,-3.876372576E-1,-6.101697683E-1,1.268196011E1
3.093859696E0,-3.804588020E-1,-5.910272002E-1,1.259821129E1
3.096270686E0,-3.708875179E-1,-5.359922647E-1,1.251924801E1
3.098681727E0,-3.637090325E-1,-4.929214716E-1,1.243789196E1
3.101092717E0,-3.613162339E-1,-4.522434771E-1,1.235175037E1
3.103503759E0,-3.637090325E-1,-4.091726840E-1,1.227278709E1
3.105914748E0,-3.589234054E-1,-3.493520916E-1,1.218903828E1
3.108325790E0,-3.493520916E-1,-3.206382394E-1,1.209571838E1
3.110736832E0,-3.326023519E-1,-2.847459018E-1,1.200718403E1
3.113147821E0,-3.397808075E-1,-2.153540403E-1,1.190190029E1
3.115558863E0,-3.326023519E-1,-1.938186288E-1,1.182532978E1
3.117969852E0,-3.326023519E-1,-1.411765367E-1,1.173918819E1
3.120380894E0,-3.349951804E-1,-7.657032460E-2,1.165304661E1
3.122791936E0,-3.349951804E-1,-3.110669367E-2,1.157169056E1
3.125202925E0,-3.278166950E-1,-4.785645287E-3,1.148315620E1
3.127613967E0,-3.278166950E-1,4.307080805E-2,1.140658569E1
3.130024957E0,-3.469592929E-1,8.374879509E-2,1.133240795E1
3.132435998E0,-3.589234054E-1,1.244267747E-1,1.125583744E1
3.134847040E0,-3.613162339E-1,1.698904037E-1,1.116969585E1
3.137258029E0,-3.637090325E-1,2.201396823E-1,1.109073257E1
3.139669071E0,-3.732803464E-1,2.679961324E-1,1.101655579E1
3.142080061E0,-3.876372576E-1,3.158525825E-1,1.094477081E1
3.144491102E0,-3.900300860E-1,3.613162339E-1,1.087537861E1
3.146902144E0,-3.900300860E-1,4.115654826E-1,1.080838013E1
3.149313134E0,-3.900300860E-1,4.666004181E-1,1.074377346E1
3.151724175E0,-3.972085714E-1,5.096712112E-1,1.067438221E1
3.154135165E0,-4.115654826E-1,5.288137794E-1,1.059541893E1
3.156546207E0,-4.283152521E-1,5.958128572E-1,1.053081226E1
3.158957248E0,-4.450650215E-1,6.293123364E-1,1.044945621E1
3.161368238E0,-4.570291340E-1,6.652047038E-1,1.038485050E1
3.163779279E0,-4.594219327E-1,7.154539824E-1,1.031785107E1
3.166190269E0,-4.642075896E-1,7.680960894E-1,1.026281643E1
3.168601311E0,-4.785645306E-1,7.944171429E-1,1.020299530E1
3.171012300E0,-5.048855543E-1,8.470591903E-1,1.013121128E1
3.173423342E0,-5.024927258E-1,8.733802438E-1,1.005703354E1
3.175834384E0,-5.096712112E-1,9.068797827E-1,9.994820595E0
3.178245373E0,-5.288137794E-1,9.379864931E-1,9.934999466E0
3.180656415E0,-5.216353536E-1,9.810572863E-1,9.877572060E0
3.183067457E0,-5.216353536E-1,1.000199914E0,9.817750931E0
3.185478446E0,-5.359922647E-1,1.026520967E0,9.750752449E0
3.187889488E0,-5.383850932E-1,1.071984529E0,9.678967476E0
3.190300477E0,-5.503492355E-1,1.091127157E0,9.623932838E0
3.192711519E0,-5.527420044E-1,1.112662554E0,9.556933403E0
3.195122509E0,-5.599204898E-1,1.127019525E0,9.487542152E0
3.197533550E0,-5.647061467E-1,1.162911773E0,9.420542717E0
3.199944592E0,-5.647061467E-1,1.184447169E0,9.343972206E0
3.202355582E0,-5.623133183E-1,1.194018483E0,9.293723106E0
3.204766623E0,-5.623133183E-1,1.217946768E0,9.214759827E0
3.207177613E0,-5.718846321E-1,1.229910851E0,9.162117958E0
3.209588654E0,-5.742774606E-1,1.261017561E0,9.095118523E0
3.211999696E0,-5.718846321E-1,1.282552958E0,9.037691116E0
3.214410686E0,-5.623133183E-1,1.272981644E0,8.973084450E0
3.216821727E0,-5.479564071E-1,1.284945726E0,8.910871506E0
3.219232717E0,-5.431707501E-1,1.323230863E0,8.848658562E0
3.221643759E0,-5.503492355E-1,1.318445325E0,8.803194046E0
3.224054800E0,-5.527420044E-1,1.313659668E0,8.769695282E0
3.226465790E0,-5.264210105E-1,1.318445325E0,8.733802795E0
3.228876832E0,-5.240281820E-1,1.320838094E0,8.681160927E0
3.231287821E0,-5.192425251E-1,1.335195065E0,8.618947029E0
3.233698863E0,-5.096712112E-1,1.356730461E0,8.583054543E0
3.236109904E0,-5.096712112E-1,1.344766378E0,8.528019905E0
3.238520894E0,-5.288137794E-1,1.354337573E0,8.501698494E0
3.240931936E0,-5.072783828E-1,1.349551916E0,8.465806961E0
3.243342925E0,-4.833501875E-1,1.356730461E0,8.427521706E0
3.245753967E0,-4.809573591E-1,1.354337573E0,8.391629219E0
3.248165009E0,-4.761717021E-1,1.351944804E0,8.358129501E0
3.250575998E0,-4.713860750E-1,1.351944804E0,8.334200859E0
3.252987040E0,-4.713860750E-1,1.349551916E0,8.315058708E0
3.255398029E0,-4.594219327E-1,1.339980721E0,8.283951759E0
3.257809071E0,-4.235295951E-1,1.349551916E0,8.262416840E0
3.260220061E0,-4.259224236E-1,1.328016520E0,8.240880966E0
3.262631102E0,-3.996013701E-1,1.328016520E0,8.240880966E0
3.265042144E0,-3.972085714E-1,1.323230863E0,8.219346046E0
3.267453134E0,-3.948157430E-1,1.323230863E0,8.200202942E0
3.269864175E0,-3.876372576E-1,1.296909928E0,8.181060791E0
3.272275165E0,-3.684946895E-1,1.294517040E0,8.178668022E0
3.274686207E0,-3.637090325E-1,1.263410330E0,8.164310455E0
3.277097248E0,-3.445664644E-1,1.275374413E0,8.157132149E0
3.279508238E0,-3.469592929E-1,1.256231904E0,8.147561073E0
3.281919279E0,-3.349951804E-1,1.261017561E0,8.140382767E0
3.284330321E0,-3.206382394E-1,1.253839016E0,8.126026154E0
3.286741311E0,-2.895315289E-1,1.208375454E0,8.111668587E0
3.289152352E0,-2.823530734E-1,1.201196909E0,8.109275818E0
3.291563342E0,-2.799602449E-1,1.194018483E0,8.111668587E0
3.293974384E0,-2.751746178E-1,1.162911773E0,8.109275818E0
3.296385425E0,-2.703889608E-1,1.158126116E0,8.075776100E0
3.298796415E0,-2.560320199E-1,1.143769264E0,8.070990562E0
3.301207457E0,-2.560320199E-1,1.100698471E0,8.061419487E0
3.303618446E0,-2.512463629E-1,1.098305583E0,8.068597794E0
3.306029488E0,-2.392822653E-1,1.074377418E0,8.051848412E0
3.308440477E0,-2.416750938E-1,1.040877819E0,8.049455643E0
3.310851519E0,-2.560320199E-1,1.024128079E0,8.037490845E0
3.313262561E0,-2.416750938E-1,1.024128079E0,8.037490845E0
3.315673550E0,-2.392822653E-1,9.810572863E-1,8.035098076E0
3.318084592E0,-2.153540403E-1,9.571290612E-1,8.018348694E0
3.320495582E0,-1.938186288E-1,9.379864931E-1,8.011170387E0
3.322906623E0,-2.033899277E-1,9.260223508E-1,8.006384850E0
3.325317665E0,-2.129612118E-1,9.188438654E-1,8.008777618E0
3.327728654E0,-2.201396823E-1,8.877372146E-1,8.001599312E0
3.330139696E0,-2.105683982E-1,8.757730722E-1,7.987242222E0
3.332550686E0,-2.081755698E-1,8.279166222E-1,7.989634991E0
3.334961727E0,-1.962114573E-1,8.207381964E-1,8.011170387E0
3.337372769E0,-1.986042857E-1,8.039883971E-1,8.018348694E0
3.339783759E0,-1.890329868E-1,7.537391186E-1,7.999206066E0
3.342194800E0,-2.153540403E-1,7.369893789E-1,8.011170387E0
3.344605790E0,-2.249253243E-1,7.322037220E-1,8.013563156E0
3.347016832E0,-2.273181528E-1,7.130611539E-1,8.020741463E0
3.349427873E0,-2.225325108E-1,6.843472719E-1,8.030312538E0
3.351838863E0,-2.201396823E-1,6.628118753E-1,8.020741463E0
3.354249904E0,-2.321037948E-1,6.508477330E-1,8.018348694E0
3.356660894E0,-2.464607358E-1,6.101697683E-1,8.032705307E0
3.359071936E0,-2.608176768E-1,5.910272002E-1,8.054241180E0
3.361482977E0,-2.512463629E-1,5.814558864E-1,8.061419487E0
3.363893967E0,-2.368894368E-1,5.575276613E-1,8.070990562E0
3.366305009E0,-2.632105052E-1,5.288137794E-1,8.085348129E0
3.368715998E0,-2.751746178E-1,5.168496966E-1,8.109275818E0
3.371127040E0,-2.871387303E-1,5.024927258E-1,8.135597229E0
3.373538082E0,-2.823530734E-1,4.977070987E-1,8.154739380E0
3.375949071E0,-2.799602449E-1,4.737788737E-1,8.166703224E0
3.378360113E0,-2.943171859E-1,4.474578202E-1,8.176275253E0
3.380771102E0,-2.871387303E-1,4.283152521E-1,8.202595711E0
3.383182144E0,-3.038884699E-1,3.948157430E-1,8.228917122E0
3.385593186E0,-3.206382394E-1,3.852444589E-1,8.250452042E0
3.388004175E0,-3.445664644E-1,3.684946895E-1,8.267202377E0
3.390415217E0,-3.469592929E-1,3.637090325E-1,8.295916557E0
3.392826207E0,-3.589234054E-1,3.565305769E-1,8.329415321E0
3.395237248E0,-3.661018610E-1,3.493520916E-1,8.341380119E0
3.397648238E0,-3.661018610E-1,3.254238665E-1,8.365307808E0
3.400059279E0,-3.852444589E-1,3.134597540E-1,8.391629219E0
3.402470321E0,-3.876372576E-1,3.014956415E-1,8.398807526E0
3.404881311E0,-3.900300860E-1,2.967100143E-1,8.429914474E0
3.407292352E0,-4.139583111E-1,2.632105052E-1,8.465806961E0
3.409703342E0,-4.163511395E-1,2.584248483E-1,8.484949112E0
3.412114384E0,-4.187439680E-1,2.440679073E-1,8.494520187E0
3.414525425E0,-4.283152521E-1,2.344966233E-1,8.535198212E0
3.416936415E0,-4.187439680E-1,2.273181528E-1,8.551948547E0
3.419347457E0,-4.235295951E-1,2.153540403E-1,8.568697929E0
3.421758446E0,-4.426721931E-1,1.914258152E-1,8.592626572E0
3.424169488E0,-4.522434771E-1,1.938186288E-1,8.616554260E0
3.426580529E0,-4.785645306E-1,1.746760458E-1,8.633303642E0
3.428991519E0,-4.761717021E-1,1.722832322E-1,8.666803360E0
3.431402561E0,-4.666004181E-1,1.794617027E-1,8.683553696E0
3.433813550E0,-4.833501875E-1,1.770688742E-1,8.693124771E0
3.436224592E0,-4.881358147E-1,1.531406492E-1,8.705088615E0
3.438635634E0,-4.929214716E-1,1.507478207E-1,8.733802795E0
3.441046623E0,-5.000999570E-1,1.603191197E-1,8.760123253E0
3.443457665E0,-5.096712112E-1,1.435693651E-1,8.767302513E0
3.445868654E0,-5.072783828E-1,1.411765367E-1,8.791230202E0
3.448279696E0,-5.120640397E-1,1.292124242E-1,8.796015739E0
3.450690738E0,-5.096712112E-1,1.196411327E-1,8.815158844E0
3.453101727E0,-4.953143001E-1,1.172483116E-1,8.846264839E0
3.455512769E0,-4.929214716E-1,1.339980662E-1,8.851051331E0
3.457923759E0,-4.809573591E-1,1.076770201E-1,8.867800713E0
3.460334800E0,-4.929214716E-1,1.172483116E-1,8.886942863E0
3.462745842E0,-5.024927258E-1,1.100698411E-1,8.908478737E0
3.465156832E0,-5.048855543E-1,1.148554832E-1,8.930013657E0
3.467567873E0,-5.144568682E-1,1.148554832E-1,8.946763992E0
3.469978863E0,-5.120640397E-1,1.292124242E-1,8.963513374E0
3.472389904E0,-5.072783828E-1,1.411765367E-1,8.997013092E0
3.474800946E0,-4.977070987E-1,1.292124242E-1,9.020941734E0
3.477211936E0,-5.048855543E-1,1.244267747E-1,9.032905579E0
3.479622977E0,-4.905286431E-1,1.339980662E-1,9.061619759E0
3.482033967E0,-4.881358147E-1,1.196411327E-1,9.087940216E0
3.484445009E0,-4.689932466E-1,1.363908947E-1,9.109476089E0
3.486856050E0,-4.737788737E-1,1.555334777E-1,9.140582085E0
3.489267040E0,-4.689932466E-1,1.603191197E-1,9.159725189E0
3.491678082E0,-4.761717021E-1,1.555334777E-1,9.188439369E0
3.494089071E0,-4.666004181E-1,1.698904037E-1,9.205188751E0
3.496500113E0,-4.689932466E-1,1.866401732E-1,9.243474007E0
3.498911154E0,-4.546363056E-1,2.081755698E-1,9.269794464E0
3.501322144E0,-4.570291340E-1,1.818545163E-1,9.293723106E0
3.503733186E0,-4.570291340E-1,1.986042857E-1,9.324830055E0
3.506144175E0,-4.354937077E-1,2.129612118E-1,9.348757744E0
3.508555217E0,-4.331009090E-1,2.368894368E-1,9.372686386E0
3.510966259E0,-4.235295951E-1,2.584248483E-1,9.401400566E0
3.513377248E0,-4.259224236E-1,2.560320199E-1,9.425328255E0
3.515788290E0,-4.163511395E-1,2.560320199E-1,9.451649666E0
3.518199279E0,-4.187439680E-1,2.847459018E-1,9.473184586E0
3.520610321E0,-3.948157430E-1,2.895315289E-1,9.485149384E0
3.523021363E0,-3.876372576E-1,3.014956415E-1,9.511469841E0
3.525432352E0,-3.637090325E-1,3.182454109E-1,9.540184021E0
3.527843394E0,-3.661018610E-1,3.349951804E-1,9.544969559E0
3.530254384E0,-3.684946895E-1,3.565305769E-1,9.564111710E0
3.532665425E0,-3.613162339E-1,3.732803464E-1,9.600004196E0
3.535076467E0,-3.517449200E-1,3.732803464E-1,9.602396965E0
3.537487457E0,-3.421736360E-1,3.996013701E-1,9.614361763E0
3.539898498E0,-3.230310678E-1,4.235295951E-1,9.628718376E0
3.542309488E0,-3.230310678E-1,4.139583111E-1,9.652647018E0
3.544720529E0,-3.326023519E-1,4.426721931E-1,9.664610863E0
3.547131519E0,-3.182454109E-1,4.594219327E-1,9.674181938E0
3.549542561E0,-3.038884699E-1,4.737788737E-1,9.710074425E0
3.551953602E0,-3.062812984E-1,5.000999570E-1,9.717252731E0
3.554364592E0,-2.967100143E-1,5.120640397E-1,9.712467194E0
3.556775634E0,-2.895315289E-1,5.312066078E-1,9.734002113E0
3.559186675E0,-2.943171859E-1,5.599204898E-1,9.748359680E0
3.561597665E0,-2.919243574E-1,5.694918036E-1,9.753145218E0
3.564008707E0,-2.847459018E-1,5.838487148E-1,9.757930756E0
3.566419696E0,-2.847459018E-1,6.221339107E-1,9.779465675E0
3.568830738E0,-2.823530734E-1,6.317051649E-1,9.791430473E0
3.571241727E0,-2.584248483E-1,6.484549642E-1,9.798608780E0
3.573652769E0,-2.679961324E-1,6.843472719E-1,9.803394318E0
3.576063811E0,-2.799602449E-1,6.891329288E-1,9.827322960E0
3.578474800E0,-2.871387303E-1,6.939185858E-1,9.848857880E0
3.580885842E0,-2.847459018E-1,7.274180651E-1,9.865608215E0
3.583296832E0,-2.823530734E-1,7.585247755E-1,9.870393753E0
3.585707873E0,-2.871387303E-1,7.680960894E-1,9.899106979E0
3.588118915E0,-3.110669553E-1,7.944171429E-1,9.918250084E0
3.590529904E0,-2.943171859E-1,8.183453679E-1,9.930213928E0
3.592940946E0,-2.847459018E-1,8.255237937E-1,9.951749802E0
3.595351936E0,-3.014956415E-1,8.327022791E-1,9.978070259E0
3.597762977E0,-3.206382394E-1,8.614161611E-1,9.999606133E0
3.600174019E0,-3.326023519E-1,8.662018180E-1,1.001874828E1
3.602585009E0,-3.469592929E-1,8.949156404E-1,1.003310490E1
3.604996050E0,-3.637090325E-1,8.997012973E-1,1.007617569E1
3.607407092E0,-3.732803464E-1,9.236295223E-1,1.009771156E1
3.609818082E0,-3.828516304E-1,9.403793216E-1,1.013360405E1
3.612229123E0,-3.828516304E-1,9.619147182E-1,1.016231823E1
3.614640113E0,-3.972085714E-1,9.667003751E-1,1.017906761E1
3.617051154E0,-4.067798555E-1,9.834501147E-1,1.022692394E1
3.619462144E0,-4.187439680E-1,1.002592683E0,1.026520920E1
3.621873186E0,-4.235295951E-1,1.009771109E0,1.027478027E1
3.624284227E0,-4.354937077E-1,1.024128079E0,1.030349445E1
3.626695217E0,-4.570291340E-1,1.014556766E0,1.032742214E1
3.629106259E0,-4.666004181E-1,1.045663476E0,1.036810017E1
3.631517248E0,-4.594219327E-1,1.067198873E0,1.040159988E1
3.633928290E0,-4.809573591E-1,1.074377418E0,1.042792130E1
3.636339332E0,-4.905286431E-1,1.074377418E0,1.044945621E1
3.638750321E0,-5.072783828E-1,1.071984529E0,1.047577763E1
3.641161363E0,-5.216353536E-1,1.088734269E0,1.051167011E1
3.643572352E0,-5.288137794E-1,1.091127157E0,1.054995537E1
3.645983394E0,-5.551348329E-1,1.083948612E0,1.057388306E1
3.648394436E0,-5.694918036E-1,1.088734269E0,1.060738277E1
3.650805425E0,-5.838487148E-1,1.098305583E0,1.064088249E1
3.653216467E0,-5.910272002E-1,1.093519926E0,1.067916775E1
3.655627457E0,-5.982056856E-1,1.083948612E0,1.069352436E1
3.658038498E0,-6.197410822E-1,1.083948612E0,1.072463131E1
3.660449540E0,-6.221339107E-1,1.076770186E0,1.076052380E1
3.662860529E0,-6.317051649E-1,1.050449133E0,1.079402256E1
3.665271571E0,-6.293123364E-1,1.050449133E0,1.082752228E1
3.667682561E0,-6.340979934E-1,1.048056364E0,1.085862923E1
3.670093602E0,-6.436693072E-1,1.048056364E0,1.088255692E1
3.672504644E0,-6.460621357E-1,1.052842021E0,1.090170002E1
3.674915634E0,-6.508477330E-1,1.021735311E0,1.094955635E1
3.677326675E0,-6.580262184E-1,1.000199914E0,1.098305607E1
3.679737665E0,-6.628118753E-1,9.810572863E-1,1.101416302E1
3.682148707E0,-6.652047038E-1,9.762716293E-1,1.105005455E1
3.684559696E0,-6.652047038E-1,9.667003751E-1,1.109312534E1
3.686970738E0,-6.675975323E-1,9.451649189E-1,1.111944675E1
3.689381779E0,-6.580262184E-1,9.044869542E-1,1.115773201E1
3.691792769E0,-6.580262184E-1,8.877372146E-1,1.120319557E1
3.694203811E0,-6.628118753E-1,8.733802438E-1,1.123908806E1
3.696614852E0,-6.580262184E-1,8.518448472E-1,1.129651546E1
3.699025842E0,-6.508477330E-1,8.255237937E-1,1.133240795E1
3.701436884E0,-6.364908218E-1,8.183453679E-1,1.138744259E1
3.703847873E0,-6.245267391E-1,7.776673436E-1,1.141854954E1
3.706258915E0,-6.245267391E-1,7.513462901E-1,1.145683479E1
3.708669904E0,-6.245267391E-1,7.226324677E-1,1.151186943E1
3.711080946E0,-6.317051649E-1,6.867401004E-1,1.154776192E1
3.713491988E0,-6.293123364E-1,6.532405615E-1,1.158843994E1
3.715902977E0,-6.029912829E-1,6.245267391E-1,1.165304661E1
3.718314019E0,-5.838487148E-1,6.053841114E-1,1.170568848E1
3.720725009E0,-5.694918036E-1,5.766702294E-1,1.176550865E1
3.723136050E0,-5.718846321E-1,5.335994363E-1,1.181336498E1
3.725547092E0,-5.527420044E-1,4.977070987E-1,1.185882950E1
3.727958082E0,-5.335994363E-1,4.618147612E-1,1.191147137E1
3.730369123E0,-5.359922647E-1,4.402793646E-1,1.196172047E1
3.732780113E0,-5.335994363E-1,4.091726840E-1,1.202632618E1
3.735191154E0,-5.240281820E-1,3.684946895E-1,1.207896900E1
3.737602196E0,-5.096712112E-1,3.182454109E-1,1.212443256E1
3.740013186E0,-4.857429862E-1,2.991028428E-1,1.218185997E1
3.742424227E0,-4.809573591E-1,2.464607358E-1,1.223450184E1
3.744835217E0,-4.618147612E-1,2.249253243E-1,1.229193020E1
3.747246259E0,-4.666004181E-1,1.746760458E-1,1.235175037E1
3.749657300E0,-4.522434771E-1,1.220339537E-1,1.239242840E1
3.752068290E0,-4.426721931E-1,8.853443712E-2,1.242832088E1
3.754479332E0,-4.426721931E-1,3.828516230E-2,1.247139168E1
3.756890321E0,-4.331009090E-1,7.178467698E-3,1.251924801E1
3.759301363E0,-4.283152521E-1,-2.392822690E-2,1.257667542E1
3.761712404E0,-4.187439680E-1,-8.135596663E-2,1.261974621E1
3.764123394E0,-4.259224236E-1,-1.172483116E-1,1.267238903E1
3.766534436E0,-4.139583111E-1,-1.770688742E-1,1.270828152E1
3.768945477E0,-3.996013701E-1,-2.009970993E-1,1.275853062E1
3.771356467E0,-3.948157430E-1,-2.416750938E-1,1.280160141E1
3.773767509E0,-3.780659735E-1,-2.775674164E-1,1.283749390E1
3.776178498E0,-3.828516304E-1,-3.206382394E-1,1.286859989E1
3.778589540E0,-3.876372576E-1,-3.445664644E-1,1.290688515E1
3.781000529E0,-4.091726840E-1,-3.780659735E-1,1.295234871E1
3.783411571E0,-4.163511395E-1,-4.235295951E-1,1.298584843E1
3.785822613E0,-4.067798555E-1,-4.546363056E-1,1.301216984E1
3.788233602E0,-4.139583111E-1,-4.929214716E-1,1.304806232E1
3.790644644E0,-4.235295951E-1,-5.192425251E-1,1.308156109E1
3.793055634E0,-4.235295951E-1,-5.527420044E-1,1.310548973E1
3.795466675E0,-4.235295951E-1,-5.838487148E-1,1.313659668E1
3.797877717E0,-4.115654826E-1,-6.269195080E-1,1.315573883E1
3.800288707E0,-4.211367965E-1,-6.412764788E-1,1.318206024E1
3.802699748E0,-4.354937077E-1,-6.723831892E-1,1.321077347E1
3.805110738E0,-4.498506486E-1,-7.082754970E-1,1.322034550E1
3.807521779E0,-4.594219327E-1,-7.393822074E-1,1.325145149E1
3.809932821E0,-4.546363056E-1,-7.752745152E-1,1.328734398E1
3.812343811E0,-4.689932466E-1,-7.968099117E-1,1.331127262E1
3.814754852E0,-4.881358147E-1,-8.183453679E-1,1.332562923E1
3.817165842E0,-4.905286431E-1,-8.350951076E-1,1.333998585E1
3.819576884E0,-4.809573591E-1,-8.662018180E-1,1.336870003E1
3.821987873E0,-5.240281820E-1,-8.853443861E-1,1.339023590E1
3.824398915E0,-5.383850932E-1,-8.781659007E-1,1.340459251E1
3.826809957E0,-5.551348329E-1,-9.044869542E-1,1.342612743E1
3.829220946E0,-5.623133183E-1,-9.284151793E-1,1.344287777E1
3.831631988E0,-5.647061467E-1,-9.236295223E-1,1.345244884E1
3.834043029E0,-5.838487148E-1,-9.523434043E-1,1.346441269E1
3.836454019E0,-5.982056856E-1,-9.667003751E-1,1.347637749E1
3.838865061E0,-6.101697683E-1,-9.810572863E-1,1.350269794E1
3.841276050E0,-6.125625968E-1,-9.738788009E-1,1.349312687E1
3.843687092E0,-6.053841114E-1,-9.810572863E-1,1.348594856E1
3.846098134E0,-6.197410822E-1,-1.004985452E0,1.350987625E1
3.848509123E0,-6.460621357E-1,-1.016949654E0,1.352423382E1
3.850920165E0,-6.580262184E-1,-1.014556766E0,1.351466274E1
3.853331154E0,-6.652047038E-1,-1.009771109E0,1.351466274E1
3.855742196E0,-6.628118753E-1,-1.007378340E0,1.351226902E1
3.858153238E0,-6.819544435E-1,-1.014556766E0,1.351466274E1
3.860564227E0,-6.843472719E-1,-1.028913736E0,1.348116302E1
3.862975269E0,-6.939185858E-1,-1.021735311E0,1.347398472E1
3.865386259E0,-6.987041831E-1,-1.004985452E0,1.345244884E1
3.867797300E0,-7.178468108E-1,-1.000199914E0,1.343091393E1
3.870208342E0,-7.202396393E-1,-1.024128079E0,1.341177082E1
3.872619332E0,-7.106683254E-1,-9.954141974E-1,1.339502144E1
3.875030373E0,-7.178468108E-1,-9.834501147E-1,1.336870003E1
3.877441363E0,-7.154539824E-1,-9.858429432E-1,1.333759308E1
3.879852404E0,-7.130611539E-1,-9.762716293E-1,1.332562923E1
3.882263446E0,-7.010970116E-1,-9.547362328E-1,1.328255844E1
3.884674436E0,-6.891329288E-1,-9.475577474E-1,1.324427319E1
3.887085477E0,-6.963114142E-1,-9.523434043E-1,1.319402409E1
3.889496467E0,-6.963114142E-1,-9.332008362E-1,1.314616776E1
3.891907509E0,-6.891329288E-1,-9.236295223E-1,1.311506081E1
3.894318550E0,-6.891329288E-1,-9.020941257E-1,1.307438278E1
3.896729540E0,-6.963114142E-1,-8.781659007E-1,1.302413368E1
3.899140582E0,-6.843472719E-1,-8.614161611E-1,1.297627735E1
3.901551571E0,-6.819544435E-1,-8.566305041E-1,1.292363548E1
3.903962613E0,-6.628118753E-1,-8.614161611E-1,1.287338543E1
3.906373602E0,-6.460621357E-1,-8.327022791E-1,1.281595802E1
3.908784644E0,-6.293123364E-1,-7.968099117E-1,1.276570892E1
3.911195686E0,-6.412764788E-1,-7.872386575E-1,1.271785259E1
3.913606675E0,-6.412764788E-1,-7.776673436E-1,1.265803146E1
3.916017717E0,-6.293123364E-1,-7.633104324E-1,1.261017513E1
3.918428707E0,-6.173482537E-1,-7.393822074E-1,1.256231880E1
3.920839748E0,-6.101697683E-1,-7.130611539E-1,1.250728416E1
3.923250790E0,-5.862415433E-1,-6.915257573E-1,1.246421337E1
3.925661779E0,-5.790630579E-1,-6.604190469E-1,1.240199947E1
3.928072821E0,-5.718846321E-1,-6.532405615E-1,1.233739376E1
3.930483811E0,-5.670989752E-1,-6.508477330E-1,1.227996540E1
3.932894852E0,-5.479564071E-1,-6.173482537E-1,1.224885941E1
3.935305894E0,-5.383850932E-1,-6.053841114E-1,1.220339584E1
3.937716884E0,-5.359922647E-1,-5.670989752E-1,1.213878918E1
3.940127925E0,-5.072783828E-1,-5.527420044E-1,1.207418346E1
3.942538915E0,-5.000999570E-1,-5.216353536E-1,1.201196957E1
3.944949957E0,-4.929214716E-1,-5.120640397E-1,1.196889877E1
3.947360998E0,-4.642075896E-1,-4.881358147E-1,1.191386414E1
3.949771988E0,-4.594219327E-1,-4.713860750E-1,1.185165024E1
3.952183029E0,-4.546363056E-1,-4.426721931E-1,1.178704453E1
3.954594019E0,-4.426721931E-1,-4.043870270E-1,1.172483063E1
3.957005061E0,-4.354937077E-1,-4.043870270E-1,1.166261768E1
3.959416102E0,-4.235295951E-1,-3.708875179E-1,1.159801102E1
3.961827092E0,-3.996013701E-1,-3.517449200E-1,1.153101254E1
3.964238134E0,-3.900300860E-1,-3.421736360E-1,1.145922756E1
3.966649123E0,-3.876372576E-1,-3.134597540E-1,1.139222908E1
3.969060165E0,-3.756731451E-1,-2.823530734E-1,1.132283688E1
3.971471207E0,-3.876372576E-1,-2.464607358E-1,1.126780224E1
3.973882196E0,-3.684946895E-1,-2.344966233E-1,1.121276665E1
3.976293238E0,-3.565305769E-1,-2.225325108E-1,1.113380337E1
3.978704227E0,-3.613162339E-1,-2.081755698E-1,1.105962658E1
3.981115269E0,-3.541377485E-1,-1.938186288E-1,1.098305607E1
3.983526311E0,-3.445664644E-1,-1.770688742E-1,1.091844940E1
3.985937300E0,-3.349951804E-1,-1.579262912E-1,1.084905815E1
3.988348342E0,-3.302095234E-1,-1.268195957E-1,1.078445148E1
3.990759332E0,-3.254238665E-1,-1.004985496E-1,1.071266651E1
3.993170373E0,-3.182454109E-1,-7.896314561E-2,1.063131142E1
3.995581363E0,-3.206382394E-1,-8.135596663E-2,1.055474091E1
3.997992404E0,-3.134597540E-1,-5.742774159E-2,1.049491978E1
4.000403446E0,-3.110669553E-1,-2.871387079E-2,1.042792130E1
4.002814436E0,-3.110669553E-1,-1.914258115E-2,1.034656525E1
4.005225477E0,-2.967100143E-1,4.785645287E-3,1.028913784E1
4.007636519E0,-3.038884699E-1,1.196411345E-2,1.021496010E1
4.010047509E0,-3.038884699E-1,3.110669367E-2,1.014078236E1
4.012458550E0,-3.014956415E-1,6.699903309E-2,1.009292603E1
4.014869540E0,-2.919243574E-1,7.657032460E-2,1.003549862E1
4.017280582E0,-3.038884699E-1,8.614161611E-2,9.970891953E0
4.019691571E0,-3.134597540E-1,9.810572863E-2,9.906285286E0
4.022102613E0,-3.158525825E-1,1.124626622E-1,9.853643417E0
4.024513654E0,-3.206382394E-1,1.292124242E-1,9.791430473E0
4.026924644E0,-3.254238665E-1,1.459621787E-1,9.745966911E0
4.029335686E0,-3.230310678E-1,1.579262912E-1,9.690931320E0
4.031746727E0,-3.373879790E-1,1.627119333E-1,9.657432556E0
4.034157717E0,-3.469592929E-1,1.938186288E-1,9.595218658E0
4.036568759E0,-3.517449200E-1,2.033899277E-1,9.544969559E0
4.038979748E0,-3.397808075E-1,2.153540403E-1,9.492327690E0
4.041390790E0,-3.493520916E-1,2.033899277E-1,9.449256897E0
4.043801832E0,-3.637090325E-1,2.201396823E-1,9.410971642E0
4.046212821E0,-3.661018610E-1,2.297109663E-1,9.370293617E0
4.048623863E0,-3.565305769E-1,2.368894368E-1,9.329615593E0
4.051034852E0,-3.732803464E-1,2.488535494E-1,9.300901413E0
4.053445894E0,-3.852444589E-1,2.512463629E-1,9.255437851E0
4.055856936E0,-3.948157430E-1,2.560320199E-1,9.214759827E0
4.058267925E0,-3.972085714E-1,2.608176768E-1,9.183652878E0
4.060678967E0,-4.043870270E-1,2.727817893E-1,9.157332420E0
4.063089957E0,-4.019941986E-1,2.847459018E-1,9.121439934E0
4.065500998E0,-4.187439680E-1,2.799602449E-1,9.090332985E0
4.067912040E0,-4.139583111E-1,2.967100143E-1,9.049654961E0
4.070323029E0,-4.283152521E-1,3.038884699E-1,9.018548965E0
4.072734071E0,-4.283152521E-1,2.967100143E-1,8.997013092E0
4.075145061E0,-4.426721931E-1,3.014956415E-1,8.973084450E0
4.077556102E0,-4.570291340E-1,2.775674164E-1,8.934800148E0
4.079967144E0,-4.570291340E-1,2.871387303E-1,8.913264275E0
4.082378134E0,-4.474578202E-1,3.062812984E-1,8.884550095E0
4.084789175E0,-4.618147612E-1,2.991028428E-1,8.860622406E0
4.087200165E0,-4.570291340E-1,3.038884699E-1,8.841479301E0
4.089611207E0,-4.713860750E-1,2.943171859E-1,8.807980537E0
4.092022196E0,-4.642075896E-1,2.847459018E-1,8.791230202E0
4.094433238E0,-4.546363056E-1,2.727817893E-1,8.774480820E0
4.096844279E0,-4.522434771E-1,2.703889608E-1,8.755337715E0
4.099255269E0,-4.642075896E-1,2.775674164E-1,8.738588333E0
4.101666311E0,-4.642075896E-1,2.895315289E-1,8.726624489E0
4.104077352E0,-4.666004181E-1,2.871387303E-1,8.695517540E0
4.106488342E0,-4.689932466E-1,2.632105052E-1,8.678768158E0
4.108899384E0,-4.761717021E-1,2.584248483E-1,8.673981667E0
4.111310373E0,-4.785645306E-1,2.536391914E-1,8.654839516E0
4.113721415E0,-4.761717021E-1,2.416750938E-1,8.640482903E0
4.116132404E0,-4.761717021E-1,2.392822653E-1,8.626125336E0
4.118543446E0,-4.833501875E-1,2.249253243E-1,8.604590416E0
4.120954488E0,-4.881358147E-1,2.297109663E-1,8.592626572E0
4.123365477E0,-4.761717021E-1,2.129612118E-1,8.585447311E0
4.125776519E0,-4.785645306E-1,2.129612118E-1,8.583054543E0
4.128187509E0,-4.833501875E-1,1.986042857E-1,8.575876236E0
4.130598550E0,-4.785645306E-1,2.009970993E-1,8.571090698E0
4.133009592E0,-4.618147612E-1,2.081755698E-1,8.573483467E0
4.135420582E0,-4.666004181E-1,1.866401732E-1,8.563912392E0
4.137831623E0,-4.737788737E-1,1.555334777E-1,8.561519623E0
4.140242613E0,-4.594219327E-1,1.483550072E-1,8.573483467E0
4.142653654E0,-4.474578202E-1,1.627119333E-1,8.585447311E0
4.145064696E0,-4.426721931E-1,1.339980662E-1,8.590232849E0
4.147475686E0,-4.259224236E-1,1.244267747E-1,8.604590416E0
4.149886727E0,-4.283152521E-1,1.076770201E-1,8.602197647E0
4.152297717E0,-4.259224236E-1,8.135596663E-2,8.604590416E0
4.154708759E0,-4.187439680E-1,8.614161611E-2,8.618947029E0
4.157119800E0,-4.259224236E-1,8.135596663E-2,8.630910873E0
4.159530790E0,-4.187439680E-1,5.742774159E-2,8.652446747E0
4.161941832E0,-4.235295951E-1,5.024927482E-2,8.678768158E0
4.164352821E0,-4.139583111E-1,1.914258115E-2,8.693124771E0
4.166763863E0,-4.067798555E-1,7.178467698E-3,8.714659691E0
4.169174904E0,-3.852444589E-1,-9.571290575E-3,8.740981102E0
4.171585894E0,-3.804588020E-1,-1.674975827E-2,8.764909744E0
4.173996936E0,-3.756731451E-1,-3.110669367E-2,8.784051895E0
4.176407925E0,-3.613162339E-1,-4.546362907E-2,8.800801277E0
4.178818967E0,-3.661018610E-1,-7.178468257E-2,8.829515457E0
4.181230009E0,-3.684946895E-1,-8.853443712E-2,8.865407944E0
4.183640998E0,-3.684946895E-1,-9.571290761E-2,8.891729355E0
4.186052040E0,-3.684946895E-1,-1.052841991E-1,8.910871506E0
4.188463029E0,-3.684946895E-1,-1.196411327E-1,8.939585686E0
4.190874071E0,-3.541377485E-1,-1.483550072E-1,8.980263710E0
4.193285113E0,-3.469592929E-1,-1.698904037E-1,9.013762474E0
4.195696102E0,-3.493520916E-1,-1.818545163E-1,9.035298347E0
4.198107144E0,-3.397808075E-1,-1.986042857E-1,9.075976372E0
4.200518134E0,-3.278166950E-1,-2.177468538E-1,9.114261627E0
4.202929175E0,-3.182454109E-1,-2.416750938E-1,9.135796547E0
4.205340217E0,-3.206382394E-1,-2.512463629E-1,9.176474571E0
4.207751207E0,-3.134597540E-1,-2.584248483E-1,9.202795982E0
4.210162248E0,-2.967100143E-1,-2.823530734E-1,9.221938133E0
4.212573238E0,-2.943171859E-1,-3.158525825E-1,9.260223389E0
4.214984279E0,-2.967100143E-1,-3.086741269E-1,9.303294182E0
4.217395321E0,-3.110669553E-1,-3.182454109E-1,9.329615593E0
4.219806311E0,-3.038884699E-1,-3.541377485E-1,9.358329773E0
4.222217352E0,-2.943171859E-1,-3.565305769E-1,9.387042999E0
4.224628342E0,-2.799602449E-1,-3.900300860E-1,9.430113792E0
4.227039384E0,-2.823530734E-1,-4.211367965E-1,9.466006279E0
4.229450425E0,-2.751746178E-1,-4.283152521E-1,9.494720459E0
4.231861415E0,-2.703889608E-1,-4.450650215E-1,9.523433685E0
4.234272457E0,-2.656033039E-1,-4.689932466E-1,9.566504478E0
4.236683446E0,-2.799602449E-1,-4.785645306E-1,9.597611427E0
4.239094488E0,-2.751746178E-1,-5.048855543E-1,9.631111145E0
4.241505477E0,-2.823530734E-1,-5.288137794E-1,9.667003632E0
4.243916519E0,-2.847459018E-1,-5.503492355E-1,9.700503349E0
4.246327561E0,-2.847459018E-1,-5.670989752E-1,9.741181374E0
4.248738550E0,-2.751746178E-1,-5.718846321E-1,9.777072906E0
4.251149592E0,-2.967100143E-1,-6.125625968E-1,9.817750931E0
4.253560634E0,-2.967100143E-1,-6.317051649E-1,9.863214493E0
4.255971623E0,-2.943171859E-1,-6.412764788E-1,9.896714211E0
4.258382665E0,-3.134597540E-1,-6.484549642E-1,9.954142570E0
4.260793654E0,-3.134597540E-1,-6.771687865E-1,9.999606133E0
4.263204696E0,-3.158525825E-1,-6.915257573E-1,1.004028416E1
4.265615738E0,-3.254238665E-1,-6.963114142E-1,1.008574772E1
4.268026727E0,-3.182454109E-1,-7.322037220E-1,1.011924744E1
4.270437769E0,-3.182454109E-1,-7.513462901E-1,1.016710377E1
4.272848759E0,-3.349951804E-1,-7.441678643E-1,1.020299530E1
4.275259800E0,-3.326023519E-1,-7.680960894E-1,1.027238750E1
4.277670842E0,-3.493520916E-1,-7.776673436E-1,1.033220863E1
4.280081832E0,-3.565305769E-1,-7.896314859E-1,1.038724327E1
4.282492873E0,-3.661018610E-1,-8.183453679E-1,1.044227791E1
4.284903863E0,-3.828516304E-1,-8.470591903E-1,1.050209904E1
4.287314904E0,-3.924229145E-1,-8.709874153E-1,1.056191921E1
4.289725894E0,-3.780659735E-1,-8.877372146E-1,1.061934662E1
4.292136936E0,-3.924229145E-1,-9.044869542E-1,1.067198944E1
4.294547977E0,-4.043870270E-1,-9.116654396E-1,1.072223854E1
4.296958967E0,-4.187439680E-1,-9.164510965E-1,1.077009487E1
4.299370009E0,-4.211367965E-1,-9.188438654E-1,1.082991505E1
4.301781050E0,-4.354937077E-1,-9.427721500E-1,1.088973618E1
4.304192040E0,-4.426721931E-1,-9.499505758E-1,1.094477081E1
4.306603082E0,-4.450650215E-1,-9.690931439E-1,1.099262714E1
4.309014071E0,-4.689932466E-1,-1.000199914E0,1.104526901E1
4.311425113E0,-4.642075896E-1,-1.019342422E0,1.109312534E1
4.313836102E0,-4.833501875E-1,-1.028913736E0,1.115055370E1
4.316247144E0,-4.881358147E-1,-1.036092162E0,1.120558834E1
4.318658186E0,-5.024927258E-1,-1.052842021E0,1.125823021E1
4.321069175E0,-5.072783828E-1,-1.060020447E0,1.129890823E1
4.323480217E0,-5.168496966E-1,-1.062413216E0,1.134197903E1
4.325891207E0,-5.264210105E-1,-1.086341500E0,1.138265705E1
4.328302248E0,-5.335994363E-1,-1.105484009E0,1.142094231E1
4.330713290E0,-5.503492355E-1,-1.107876897E0,1.146162033E1
4.333124279E0,-5.503492355E-1,-1.127019525E0,1.149990559E1
4.335535321E0,-5.551348329E-1,-1.115055323E0,1.154058361E1
4.337946311E0,-5.718846321E-1,-1.127019525E0,1.157647610E1
4.340357352E0,-5.670989752E-1,-1.138983607E0,1.160758305E1
4.342768394E0,-5.814558864E-1,-1.146162033E0,1.164826107E1
4.345179384E0,-5.862415433E-1,-1.162911773E0,1.167936707E1
4.347590425E0,-5.886343718E-1,-1.167697430E0,1.172243786E1
4.350001415E0,-6.173482537E-1,-1.174875975E0,1.176072311E1
4.352412457E0,-6.029912829E-1,-1.174875975E0,1.180379391E1
4.354823498E0,-6.197410822E-1,-1.182054400E0,1.184207916E1
4.357234488E0,-6.197410822E-1,-1.165304661E0,1.186840057E1
4.359645529E0,-6.221339107E-1,-1.186840057E0,1.188514996E1
4.362056519E0,-6.197410822E-1,-1.174875975E0,1.192104244E1
4.364467561E0,-6.101697683E-1,-1.170090318E0,1.195932770E1
4.366878602E0,-6.245267391E-1,-1.172483087E0,1.198804188E1
4.369289592E0,-6.221339107E-1,-1.174875975E0,1.201436234E1
4.371700634E0,-6.317051649E-1,-1.158126116E0,1.204786205E1
4.374111623E0,-6.293123364E-1,-1.167697430E0,1.208375454E1
4.376522665E0,-6.293123364E-1,-1.160519004E0,1.210050392E1
4.378933707E0,-6.269195080E-1,-1.162911773E0,1.213400364E1
4.381344696E0,-6.317051649E-1,-1.174875975E0,1.216750336E1
4.383755738E0,-6.269195080E-1,-1.167697430E0,1.219382381E1
4.386166727E0,-6.364908218E-1,-1.158126116E0,1.222253799E1
4.388577769E0,-6.293123364E-1,-1.153340459E0,1.223689461E1
4.390988811E0,-6.293123364E-1,-1.122233868E0,1.225843048E1
4.393399800E0,-6.197410822E-1,-1.098305583E0,1.228235817E1
4.395810842E0,-6.125625968E-1,-1.088734269E0,1.230150127E1
4.398221832E0,-5.886343718E-1,-1.074377418E0,1.231346512E1
4.400632873E0,-6.125625968E-1,-1.060020447E0,1.234217930E1
4.403043915E0,-6.221339107E-1,-1.052842021E0,1.235414314E1
4.405454904E0,-6.101697683E-1,-1.052842021E0,1.237567902E1
4.407865946E0,-5.958128572E-1,-1.028913736E0,1.238046455E1
4.410276936E0,-5.814558864E-1,-1.007378340E0,1.239721394E1
4.412687977E0,-5.814558864E-1,-9.954141974E-1,1.241635704E1
4.415099019E0,-5.599204898E-1,-9.595218897E-1,1.242114258E1
4.417510009E0,-5.503492355E-1,-9.403793216E-1,1.243549919E1
4.419921050E0,-5.503492355E-1,-9.116654396E-1,1.243310642E1
4.422332040E0,-5.431707501E-1,-8.877372146E-1,1.243071365E1
4.424743082E0,-5.312066078E-1,-8.566305041E-1,1.243549919E1
4.427154123E0,-5.335994363E-1,-8.350951076E-1,1.243310642E1
4.429565113E0,-5.240281820E-1,-8.159525394E-1,1.243071365E1
4.431976154E0,-5.048855543E-1,-7.848458290E-1,1.242592812E1
4.434387144E0,-4.953143001E-1,-7.489534616E-1,1.242114258E1
4.436798186E0,-4.929214716E-1,-7.106683254E-1,1.242592812E1
4.439209227E0,-4.881358147E-1,-6.699903607E-1,1.240199947E1
4.441620217E0,-4.761717021E-1,-6.293123364E-1,1.238764286E1
4.444031259E0,-4.761717021E-1,-5.934200287E-1,1.236132145E1
4.446442248E0,-4.761717021E-1,-5.694918036E-1,1.235414314E1
4.448853290E0,-4.689932466E-1,-5.359922647E-1,1.233500099E1
4.451264332E0,-4.570291340E-1,-4.953143001E-1,1.231346512E1
4.453675321E0,-4.426721931E-1,-4.522434771E-1,1.229193020E1
4.456086363E0,-4.307080805E-1,-4.043870270E-1,1.227278709E1
4.458497352E0,-4.019941986E-1,-3.517449200E-1,1.225125217E1
4.460908394E0,-4.187439680E-1,-3.110669553E-1,1.222732353E1
4.463319436E0,-4.019941986E-1,-2.727817893E-1,1.219861031E1
4.465730425E0,-3.876372576E-1,-2.321037948E-1,1.216511059E1
4.468141467E0,-3.924229145E-1,-2.105683982E-1,1.214596748E1
4.470552457E0,-3.996013701E-1,-1.651047617E-1,1.212682533E1
4.472963498E0,-3.996013701E-1,-1.076770201E-1,1.209811115E1
4.475374540E0,-4.019941986E-1,-6.221338734E-2,1.206939697E1
4.477785529E0,-4.043870270E-1,-2.392822690E-2,1.205025482E1
4.480196571E0,-3.948157430E-1,1.435693540E-2,1.202871990E1
4.482607561E0,-3.900300860E-1,4.546362907E-2,1.200718403E1
4.485018602E0,-3.948157430E-1,8.614161611E-2,1.197129154E1
4.487429644E0,-3.996013701E-1,1.339980662E-1,1.196172047E1
4.489840634E0,-4.115654826E-1,1.794617027E-1,1.194497108E1
4.492251675E0,-4.019941986E-1,2.392822653E-1,1.192343521E1
4.494662665E0,-4.259224236E-1,2.560320199E-1,1.191147137E1
4.497073707E0,-4.211367965E-1,3.062812984E-1,1.189232826E1
4.499484748E0,-4.354937077E-1,3.445664644E-1,1.189472103E1
4.501895738E0,-4.474578202E-1,3.900300860E-1,1.187557888E1
4.504306779E0,-4.689932466E-1,4.235295951E-1,1.187318611E1
4.506717769E0,-4.761717021E-1,4.594219327E-1,1.185643578E1
4.509128811E0,-4.618147612E-1,4.905286431E-1,1.183968639E1
4.511539852E0,-4.689932466E-1,5.192425251E-1,1.183011532E1
4.513950842E0,-4.881358147E-1,5.551348329E-1,1.182532978E1
4.516361884E0,-5.000999570E-1,6.029912829E-1,1.181815147E1
4.518772873E0,-4.929214716E-1,6.460621357E-1,1.182054424E1
4.521183915E0,-5.192425251E-1,6.747759581E-1,1.183011532E1
4.523594957E0,-5.312066078E-1,6.963114142E-1,1.183250809E1
4.526005946E0,-5.455635786E-1,7.226324677E-1,1.182054424E1
4.528416988E0,-5.383850932E-1,7.537391186E-1,1.181575775E1
4.530827977E0,-5.407779217E-1,7.776673436E-1,1.180857944E1
4.533239019E0,-5.647061467E-1,7.920243144E-1,1.180379391E1
4.535650009E0,-5.814558864E-1,8.255237937E-1,1.181336498E1
4.538061050E0,-5.934200287E-1,8.422735929E-1,1.180618668E1
4.540472092E0,-6.005984545E-1,8.614161611E-1,1.180379391E1
4.542883082E0,-6.125625968E-1,8.925228715E-1,1.180618668E1
4.545294123E0,-6.293123364E-1,9.188438654E-1,1.178943729E1
4.547705113E0,-6.317051649E-1,9.212366939E-1,1.179183006E1
4.550116154E0,-6.364908218E-1,9.379864931E-1,1.178943729E1
4.552527196E0,-6.484549642E-1,9.523434043E-1,1.178225899E1
4.554938186E0,-6.364908218E-1,9.738788009E-1,1.178943729E1
4.557349227E0,-6.436693072E-1,9.786644578E-1,1.178943729E1
4.559760217E0,-6.484549642E-1,9.810572863E-1,1.177268696E1
4.562171259E0,-6.556333899E-1,9.906286001E-1,1.177986622E1
4.564582300E0,-6.628118753E-1,9.906286001E-1,1.177508068E1
4.566993290E0,-6.795616150E-1,9.906286001E-1,1.177508068E1
4.569404332E0,-6.867401004E-1,9.930213690E-1,1.177747345E1
4.571815321E0,-6.699903607E-1,9.882357717E-1,1.176550865E1
4.574226363E0,-6.652047038E-1,9.738788009E-1,1.177268696E1
4.576637404E0,-6.771687865E-1,9.810572863E-1,1.177268696E1
4.579048394E0,-6.628118753E-1,9.762716293E-1,1.177268696E1
4.581459436E0,-6.604190469E-1,9.667003751E-1,1.178465176E1
4.583870425E0,-6.484549642E-1,9.643075466E-1,1.179661560E1
4.586281467E0,-6.699903607E-1,9.690931439E-1,1.180857944E1
4.588692509E0,-6.604190469E-1,9.451649189E-1,1.182054424E1
4.591103498E0,-6.532405615E-1,9.308080077E-1,1.182054424E1
4.593514540E0,-6.484549642E-1,9.188438654E-1,1.183729362E1
4.595925529E0,-6.340979934E-1,9.044869542E-1,1.185643578E1
4.598336571E0,-6.293123364E-1,8.685946465E-1,1.186600780E1
4.600747613E0,-6.293123364E-1,8.614161611E-1,1.188754272E1
4.603158602E0,-6.245267391E-1,8.470591903E-1,1.191864967E1
4.605569644E0,-6.149554253E-1,8.207381964E-1,1.192104244E1
4.607980634E0,-6.077769399E-1,8.231309652E-1,1.192343521E1
4.610391675E0,-5.910272002E-1,8.135597110E-1,1.194018459E1
4.612802717E0,-5.790630579E-1,7.776673436E-1,1.196411324E1
4.615213707E0,-5.718846321E-1,7.633104324E-1,1.198804188E1
4.617624748E0,-5.766702294E-1,7.226324677E-1,1.199761295E1
4.620035738E0,-5.599204898E-1,6.891329288E-1,1.200957680E1
4.622446779E0,-5.623133183E-1,6.843472719E-1,1.202393341E1
4.624857821E0,-5.503492355E-1,6.460621357E-1,1.203589821E1
4.627268811E0,-5.192425251E-1,6.077769399E-1,1.205743313E1
4.629679852E0,-5.120640397E-1,5.886343718E-1,1.205982590E1
4.632090842E0,-4.953143001E-1,5.838487148E-1,1.206700420E1
4.634501884E0,-4.857429862E-1,5.455635786E-1,1.207179070E1
4.636912925E0,-4.761717021E-1,5.288137794E-1,1.208375454E1
4.639323915E0,-4.953143001E-1,4.833501875E-1,1.208854008E1
4.641734957E0,-4.713860750E-1,4.570291340E-1,1.207418346E1
4.644145946E0,-4.546363056E-1,4.259224236E-1,1.207657623E1
4.646556988E0,-4.522434771E-1,4.043870270E-1,1.207896900E1
4.648968029E0,-4.283152521E-1,3.852444589E-1,1.207896900E1
4.651379019E0,-4.378865361E-1,3.565305769E-1,1.207418346E1
4.653790061E0,-4.402793646E-1,3.062812984E-1,1.206939697E1
4.656201050E0,-4.211367965E-1,2.751746178E-1,1.205982590E1
4.658612092E0,-4.187439680E-1,2.584248483E-1,1.204786205E1
4.661023134E0,-4.163511395E-1,2.368894368E-1,1.204546928E1
4.663434123E0,-4.139583111E-1,2.081755698E-1,1.202154064E1
4.665845165E0,-3.948157430E-1,1.866401732E-1,1.200000572E1
4.668256154E0,-3.996013701E-1,1.627119333E-1,1.198325539E1
4.670667196E0,-3.924229145E-1,1.435693651E-1,1.196650600E1
4.673078238E0,-3.948157430E-1,1.124626622E-1,1.194257736E1
4.675489227E0,-3.804588020E-1,9.092725813E-2,1.192822075E1
4.677900269E0,-3.756731451E-1,5.024927482E-2,1.190429306E1
4.680311259E0,-3.852444589E-1,4.546362907E-2,1.188275719E1
4.682722300E0,-3.900300860E-1,4.785645287E-3,1.186361504E1
4.685133342E0,-3.852444589E-1,-2.392822690E-2,1.184207916E1
4.687544332E0,-3.948157430E-1,-4.546362907E-2,1.181336498E1
4.689955373E0,-3.996013701E-1,-6.699903309E-2,1.177986622E1
4.692366363E0,-3.972085714E-1,-8.614161611E-2,1.176311588E1
4.694777404E0,-3.972085714E-1,-1.028913707E-1,1.173918819E1
4.697188446E0,-3.972085714E-1,-1.220339537E-1,1.171047401E1
4.699599436E0,-4.163511395E-1,-1.316052526E-1,1.169133186E1
4.702010477E0,-4.115654826E-1,-1.507478207E-1,1.166022491E1
4.704421467E0,-4.163511395E-1,-1.746760458E-1,1.162672520E1
4.706832509E0,-4.187439680E-1,-1.746760458E-1,1.160997581E1
4.709243550E0,-4.139583111E-1,-2.081755698E-1,1.157169056E1
4.711654540E0,-4.211367965E-1,-2.201396823E-1,1.154776192E1
4.714065582E0,-4.402793646E-1,-2.225325108E-1,1.152383423E1
4.716476571E0,-4.474578202E-1,-2.464607358E-1,1.148794174E1
4.718887613E0,-4.594219327E-1,-2.632105052E-1,1.146640587E1
4.721298654E0,-4.618147612E-1,-2.632105052E-1,1.144487095E1
4.723709644E0,-4.594219327E-1,-2.799602449E-1,1.140419292E1
4.726120686E0,-4.618147612E-1,-2.823530734E-1,1.138744259E1
4.728531675E0,-4.785645306E-1,-3.014956415E-1,1.134197903E1
4.730942717E0,-4.809573591E-1,-3.110669553E-1,1.130369377E1
4.733353759E0,-4.881358147E-1,-3.110669553E-1,1.127498055E1
4.735764748E0,-5.072783828E-1,-2.991028428E-1,1.124626637E1
4.738175790E0,-4.977070987E-1,-3.062812984E-1,1.121276665E1
4.740586779E0,-4.953143001E-1,-3.110669553E-1,1.118405342E1
4.742997821E0,-5.000999570E-1,-3.134597540E-1,1.113619614E1
4.745408863E0,-5.096712112E-1,-3.182454109E-1,1.109312534E1
4.747819852E0,-5.216353536E-1,-3.086741269E-1,1.105005455E1
4.750230894E0,-5.120640397E-1,-3.134597540E-1,1.099980545E1
4.752641884E0,-5.312066078E-1,-3.302095234E-1,1.096152020E1
4.755052925E0,-5.288137794E-1,-3.326023519E-1,1.092084217E1
4.757463915E0,-5.383850932E-1,-3.349951804E-1,1.087537861E1
4.759874957E0,-5.455635786E-1,-3.206382394E-1,1.082752228E1
4.762285998E0,-5.359922647E-1,-3.158525825E-1,1.078923702E1
4.764696988E0,-5.383850932E-1,-3.278166950E-1,1.074616623E1
4.767108029E0,-5.503492355E-1,-3.038884699E-1,1.068156052E1
4.769519019E0,-5.623133183E-1,-2.895315289E-1,1.063370419E1
4.771930061E0,-5.551348329E-1,-2.919243574E-1,1.058345413E1
4.774341102E0,-5.455635786E-1,-2.871387303E-1,1.052602673E1
4.776752092E0,-5.383850932E-1,-2.751746178E-1,1.046620655E1
4.779163134E0,-5.431707501E-1,-2.775674164E-1,1.040638542E1
4.781574123E0,-5.407779217E-1,-2.488535494E-1,1.034177971E1
4.783985165E0,-5.551348329E-1,-2.225325108E-1,1.029870892E1
4.786396207E0,-5.431707501E-1,-2.273181528E-1,1.024845982E1
4.788807196E0,-5.431707501E-1,-2.153540403E-1,1.017428207E1
4.791218238E0,-5.312066078E-1,-2.009970993E-1,1.011685371E1
4.793629279E0,-5.359922647E-1,-1.890329868E-1,1.006421185E1
4.796040269E0,-5.264210105E-1,-1.651047617E-1,1.000439167E1
4.798451311E0,-5.216353536E-1,-1.531406492E-1,9.934999466E0
4.800862300E0,-5.240281820E-1,-1.268195957E-1,9.882357597E0
4.803273342E0,-5.192425251E-1,-1.196411327E-1,9.822537422E0
4.805684332E0,-5.072783828E-1,-1.052841991E-1,9.748359680E0
4.808095373E0,-5.048855543E-1,-7.896314561E-2,9.693324089E0
4.810506415E0,-5.144568682E-1,-5.982056633E-2,9.628718376E0
4.812917404E0,-5.048855543E-1,-5.982056633E-2,9.552147865E0
4.815328446E0,-4.809573591E-1,-3.349951655E-2,9.473184586E0
4.817739488E0,-4.713860750E-1,-7.178467698E-3,9.401400566E0
4.820150477E0,-4.761717021E-1,9.571290575E-3,9.336793900E0
4.822561519E0,-4.498506486E-1,5.503492057E-2,9.279366493E0
4.824972509E0,-4.498506486E-1,6.460621208E-2,9.226723671E0
4.827383550E0,-4.426721931E-1,9.332008660E-2,9.145368576E0
4.829794540E0,-4.307080805E-1,1.100698411E-1,9.085547447E0
4.832205582E0,-4.235295951E-1,1.292124242E-1,9.018548965E0
4.834616623E0,-4.163511395E-1,1.507478207E-1,8.963513374E0
4.837027613E0,-4.043870270E-1,1.866401732E-1,8.906085968E0
4.839438654E0,-3.876372576E-1,1.986042857E-1,8.839086533E0
4.841849696E0,-3.804588020E-1,2.153540403E-1,8.784051895E0
4.844260686E0,-3.876372576E-1,2.416750938E-1,8.709874153E0
4.846671727E0,-3.684946895E-1,2.871387303E-1,8.666803360E0
4.849082717E0,-3.732803464E-1,3.302095234E-1,8.606983185E0
4.851493759E0,-3.637090325E-1,3.493520916E-1,8.535198212E0
4.853904748E0,-3.565305769E-1,3.732803464E-1,8.484949112E0
4.856315790E0,-3.349951804E-1,4.043870270E-1,8.437092781E0
4.858726832E0,-3.373879790E-1,4.307080805E-1,8.386843681E0
4.861137821E0,-3.349951804E-1,4.642075896E-1,8.329415321E0
4.863548863E0,-3.158525825E-1,4.929214716E-1,8.279166222E0
4.865959852E0,-3.086741269E-1,5.192425251E-1,8.216953278E0
4.868370894E0,-2.967100143E-1,5.551348329E-1,8.176275253E0
4.870781936E0,-2.823530734E-1,5.742774606E-1,8.126026154E0
4.873192925E0,-2.775674164E-1,6.125625968E-1,8.080561638E0
4.875603967E0,-2.679961324E-1,6.364908218E-1,8.037490845E0
4.878014957E0,-2.799602449E-1,6.795616150E-1,7.989634991E0
4.880425998E0,-2.847459018E-1,7.058826685E-1,7.946564198E0
4.882837040E0,-2.751746178E-1,7.298108935E-1,7.903493404E0
4.885248029E0,-2.679961324E-1,7.657032609E-1,7.874779224E0
4.887659071E0,-2.560320199E-1,7.896314859E-1,7.831708431E0
4.890070061E0,-2.440679073E-1,8.207381964E-1,7.767102242E0
4.892481102E0,-2.416750938E-1,8.662018180E-1,7.726424217E0
4.894892144E0,-2.249253243E-1,8.877372146E-1,7.697710514E0
4.897303134E0,-2.273181528E-1,9.116654396E-1,7.649854183E0
4.899714175E0,-2.368894368E-1,9.236295223E-1,7.604390144E0
4.902125165E0,-2.297109663E-1,9.619147182E-1,7.563712597E0
4.904536207E0,-2.297109663E-1,1.000199914E0,7.523034573E0
4.906947248E0,-2.392822653E-1,1.033699393E0,7.484749317E0
4.909358238E0,-2.368894368E-1,1.048056364E0,7.458428383E0
4.911769279E0,-2.321037948E-1,1.069591761E0,7.432106972E0
4.914180269E0,-2.201396823E-1,1.107876897E0,7.391428947E0
4.916591311E0,-2.273181528E-1,1.134197950E0,7.355536938E0
4.919002352E0,-2.297109663E-1,1.150947690E0,7.312466145E0
4.921413342E0,-2.225325108E-1,1.174875975E0,7.276573658E0
4.923824384E0,-2.392822653E-1,1.194018483E0,7.235895634E0
4.926235373E0,-2.297109663E-1,1.208375454E0,7.200003147E0
4.928646415E0,-2.344966233E-1,1.220339537E0,7.171289444E0
4.931057457E0,-2.392822653E-1,1.256231904E0,7.140182972E0
4.933468446E0,-2.321037948E-1,1.272981644E0,7.123433113E0
4.935879488E0,-2.488535494E-1,1.292124271E0,7.082755089E0
4.938290477E0,-2.392822653E-1,1.308874011E0,7.054041386E0
