"Time (s)","Gyroscope x (rad/s)","Gyroscope y (rad/s)","Gyroscope z (rad/s)"
5.948083900E-2,-2.557996288E-2,-3.588830587E-3,8.475748822E-3
6.189182900E-2,-1.886045001E-2,-3.588830587E-3,1.275180187E-2
6.430276600E-2,-1.275180187E-2,-4.810560029E-3,1.458439697E-2
6.671375600E-2,-7.864884101E-3,-7.254019380E-3,1.458439697E-2
6.912474600E-2,-1.145371469E-3,-1.458439697E-2,1.641699113E-2
7.153568300E-2,3.741546767E-3,-2.252563834E-2,1.641699113E-2
7.394667300E-2,8.017600514E-3,-3.168861195E-2,1.580612548E-2
7.635766200E-2,1.107192412E-2,-4.146244749E-2,1.336266659E-2
7.876860000E-2,1.412624773E-2,-5.184714869E-2,9.086613543E-3
8.117958900E-2,1.534797717E-2,-6.101011857E-2,4.199695308E-3
8.359057900E-2,1.473711245E-2,-7.017309219E-2,5.345066893E-4
8.600151600E-2,1.779143699E-2,-7.567087561E-2,-3.130682046E-3
8.841250600E-2,1.779143699E-2,-7.933606207E-2,-5.574141163E-3
9.082349600E-2,1.656970754E-2,-7.811433077E-2,-9.850194678E-3
9.323443300E-2,1.595884189E-2,-7.261654735E-2,-1.168278884E-2
9.564542300E-2,1.534797717E-2,-6.772962958E-2,-1.351538301E-2
9.805636000E-2,1.656970754E-2,-6.650790572E-2,-1.718057133E-2
1.004673500E-1,1.779143699E-2,-6.284271181E-2,-1.962403022E-2
1.028783390E-1,2.084576152E-2,-5.917752534E-2,-2.145662531E-2
1.052893290E-1,2.267835476E-2,-5.429060757E-2,-2.206749097E-2
1.077002660E-1,2.573267929E-2,-4.818195850E-2,-2.267835476E-2
1.101112560E-1,2.573267929E-2,-3.962985426E-2,-2.145662531E-2
1.125221930E-1,2.328922041E-2,-2.619082667E-2,-2.023489587E-2
1.149331830E-1,2.206749097E-2,-1.091920771E-2,-1.779143699E-2
1.173441730E-1,1.779143699E-2,6.795870606E-3,-1.473711245E-2
1.197551100E-1,1.046105940E-2,2.267835476E-2,-1.046105940E-2
1.221661000E-1,4.352411721E-3,3.978256881E-2,-6.795870606E-3
1.245770890E-1,-3.588830587E-3,5.322159454E-2,-3.130682046E-3
1.269880270E-1,-1.275180187E-2,6.421715766E-2,-7.635809743E-5
1.293990160E-1,-2.313650399E-2,7.399099320E-2,1.756236190E-3
1.318100060E-1,-3.291033953E-2,8.315397054E-2,3.588830587E-3
1.342209430E-1,-4.207331315E-2,9.048434347E-2,4.810560029E-3
1.366319330E-1,-5.184714869E-2,9.720385820E-2,7.254019380E-3
1.390429230E-1,-5.917752534E-2,9.903645515E-2,9.086613543E-3
1.414538600E-1,-6.650790572E-2,1.027016416E-1,9.086613543E-3
1.438648500E-1,-7.200568914E-2,1.045342386E-1,9.697478265E-3
1.462757870E-1,-7.506000996E-2,1.051450968E-1,1.091920771E-2
1.486867770E-1,-7.811433077E-2,1.039233729E-1,1.153007243E-2
1.510977660E-1,-7.933606207E-2,1.014799103E-1,1.214093715E-2
1.535087040E-1,-7.933606207E-2,9.476039559E-2,1.091920771E-2
1.559196930E-1,-7.689260691E-2,8.804088831E-2,9.697478265E-3
1.583306830E-1,-7.506000996E-2,8.254310489E-2,9.086613543E-3
1.607416210E-1,-7.322741300E-2,7.215840369E-2,8.475748822E-3
1.631526100E-1,-7.017309219E-2,6.543888897E-2,7.864884101E-3
1.655636000E-1,-6.834049523E-2,5.688678101E-2,7.864884101E-3
1.679745370E-1,-6.528617442E-2,5.077813566E-2,9.697478265E-3
1.703855270E-1,-6.284271181E-2,4.650207981E-2,1.153007243E-2
1.727965160E-1,-6.162098423E-2,4.466948658E-2,1.275180187E-2
1.752074540E-1,-5.978839099E-2,4.222602770E-2,1.519526169E-2
1.776184430E-1,-5.978839099E-2,4.100430012E-2,1.580612548E-2
1.800294330E-1,-5.673406646E-2,4.100430012E-2,1.580612548E-2
1.824403710E-1,-5.612320080E-2,4.039343446E-2,1.519526169E-2
1.848513600E-1,-5.429060757E-2,3.917170316E-2,1.641699113E-2
1.872623500E-1,-5.367974192E-2,3.794997558E-2,1.458439697E-2
1.896732870E-1,-5.123628303E-2,3.672824427E-2,1.336266659E-2
1.920842770E-1,-4.940368980E-2,3.550651670E-2,1.336266659E-2
1.944952660E-1,-4.696023092E-2,3.550651670E-2,1.397353224E-2
1.969062040E-1,-4.329504073E-2,3.611737862E-2,1.580612548E-2
1.993171930E-1,-4.024071619E-2,3.733910993E-2,1.580612548E-2
2.017281310E-1,-3.596466407E-2,3.978256881E-2,1.641699113E-2
2.041391210E-1,-2.924515121E-2,4.466948658E-2,2.008217946E-2
2.065501100E-1,-2.741255611E-2,5.077813566E-2,2.191477455E-2
2.089610480E-1,-2.496909723E-2,5.688678101E-2,2.252563834E-2
2.113720370E-1,-2.191477455E-2,6.482802331E-2,2.435823344E-2
2.137830270E-1,-2.008217946E-2,7.276926935E-2,2.619082667E-2
2.161939640E-1,-2.008217946E-2,7.948877662E-2,2.802342176E-2
2.186049540E-1,-2.069304511E-2,8.681915700E-2,2.924515121E-2
2.210159430E-1,-2.130390890E-2,9.598212689E-2,2.985601686E-2
2.234268810E-1,-2.496909723E-2,1.027016416E-1,3.046688065E-2
2.258378710E-1,-2.496909723E-2,1.088102907E-1,2.863428742E-2
2.282488600E-1,-2.985601686E-2,1.136972085E-1,2.863428742E-2
2.306597980E-1,-3.474293277E-2,1.161406636E-1,2.496909723E-2
2.330707870E-1,-3.657552972E-2,1.167515293E-1,2.191477455E-2
2.354817770E-1,-4.146244749E-2,1.143080741E-1,1.763872057E-2
2.378927140E-1,-4.329504073E-2,1.075885594E-1,1.214093715E-2
2.403037040E-1,-4.634936526E-2,9.720385820E-2,8.475748822E-3
2.427146930E-1,-4.696023092E-2,8.437569439E-2,2.367100911E-3
2.451256310E-1,-4.696023092E-2,6.910407543E-2,-3.741546767E-3
2.475366210E-1,-4.757109284E-2,5.199986324E-2,-9.850194678E-3
2.499476100E-1,-4.634936526E-2,3.367391974E-2,-1.595884189E-2
2.523585480E-1,-4.390590638E-2,1.718057133E-2,-2.267835476E-2
2.547695370E-1,-4.268417507E-2,7.635809743E-5,-2.939786762E-2
2.571804750E-1,-4.024071619E-2,-1.519526169E-2,-3.550651670E-2
2.595914640E-1,-3.962985426E-2,-2.924515121E-2,-4.161516204E-2
2.620024540E-1,-3.840812296E-2,-3.962985426E-2,-4.589121789E-2
2.644133910E-1,-3.596466407E-2,-4.696023092E-2,-5.077813566E-2
2.668243810E-1,-3.596466407E-2,-5.245801434E-2,-5.566505343E-2
2.692353710E-1,-3.352120519E-2,-5.429060757E-2,-5.871937796E-2
2.716463080E-1,-3.107774630E-2,-5.306887627E-2,-6.177370250E-2
2.740572980E-1,-3.107774630E-2,-5.123628303E-2,-6.543888897E-2
2.764682870E-1,-2.924515121E-2,-4.634936526E-2,-6.849320978E-2
2.788792250E-1,-2.741255611E-2,-4.146244749E-2,-7.276926935E-2
2.812902140E-1,-2.557996288E-2,-3.474293277E-2,-7.521272451E-2
2.837012040E-1,-2.252563834E-2,-3.046688065E-2,-7.704532146E-2
2.861121410E-1,-1.824958436E-2,-2.313650399E-2,-7.948877662E-2
2.885231310E-1,-1.519526169E-2,-1.886045001E-2,-8.071050793E-2
2.909341210E-1,-1.030834299E-2,-1.336266659E-2,-7.948877662E-2
2.933450580E-1,-3.588830587E-3,-9.697478265E-3,-7.765618712E-2
2.957560480E-1,2.519817324E-3,-6.643154658E-3,-7.399099320E-2
2.981670370E-1,8.628465235E-3,-2.977965865E-3,-7.093667239E-2
3.005779750E-1,1.718057133E-2,1.908952487E-3,-6.666062027E-2
3.029889640E-1,2.512181364E-2,5.574141163E-3,-6.299543381E-2
3.053999540E-1,3.061959706E-2,7.406735327E-3,-5.994110554E-2
3.078108910E-1,3.672824427E-2,1.107192412E-2,-5.444332212E-2
3.102218810E-1,4.283689335E-2,1.412624773E-2,-5.016727000E-2
3.126328180E-1,4.833467677E-2,1.595884189E-2,-4.528035223E-2
3.150438080E-1,5.199986324E-2,1.962403022E-2,-3.917170316E-2
3.174547980E-1,5.444332212E-2,2.084576152E-2,-3.489565104E-2
3.198657350E-1,5.688678101E-2,2.328922041E-2,-2.817613818E-2
3.222767250E-1,5.749764666E-2,2.512181364E-2,-2.206749097E-2
3.246877140E-1,5.871937796E-2,2.817613818E-2,-1.595884189E-2
3.270986520E-1,5.810851231E-2,3.245219216E-2,-9.850194678E-3
3.295096410E-1,5.688678101E-2,3.611737862E-2,-1.908952487E-3
3.319206310E-1,5.322159454E-2,3.856083751E-2,3.588830587E-3
3.343315680E-1,5.077813566E-2,4.100430012E-2,8.475748822E-3
3.367425580E-1,4.589121789E-2,4.222602770E-2,1.275180187E-2
3.391535480E-1,4.100430012E-2,4.405862093E-2,1.458439697E-2
3.415644850E-1,3.367391974E-2,4.528035223E-2,1.397353224E-2
3.439754750E-1,2.878700197E-2,4.650207981E-2,1.397353224E-2
3.463864640E-1,2.145662531E-2,4.528035223E-2,1.397353224E-2
3.487974020E-1,1.534797717E-2,4.589121789E-2,1.275180187E-2
3.512083910E-1,6.185005885E-3,4.528035223E-2,1.153007243E-2
3.536193810E-1,-2.367100911E-3,4.466948658E-2,1.091920771E-2
3.560303180E-1,-1.091920771E-2,4.344775900E-2,1.091920771E-2
3.584413080E-1,-2.191477455E-2,4.344775900E-2,1.030834299E-2
3.608522460E-1,-3.168861195E-2,4.283689335E-2,8.475748822E-3
3.632632350E-1,-4.146244749E-2,4.100430012E-2,6.032289471E-3
3.656742250E-1,-5.001455545E-2,3.672824427E-2,3.588830587E-3
3.680851620E-1,-6.101011857E-2,3.306305781E-2,2.977965865E-3
3.704961520E-1,-7.261654735E-2,2.634354308E-2,5.345066893E-4
3.729071410E-1,-8.239039034E-2,2.023489587E-2,-1.298087649E-3
3.753180790E-1,-9.277509153E-2,1.351538301E-2,-3.741546767E-3
3.777290680E-1,-1.007163301E-1,6.795870606E-3,-4.963276442E-3
3.801400580E-1,-1.098793000E-1,1.908952487E-3,-7.406735327E-3
3.825509960E-1,-1.159879491E-1,-2.367100911E-3,-8.628465235E-3
3.849619850E-1,-1.202640012E-1,-5.421424750E-3,-9.239329956E-3
3.873729750E-1,-1.245400533E-1,-8.475748822E-3,-8.017600514E-3
3.897839120E-1,-1.263726503E-1,-1.153007243E-2,-7.406735327E-3
3.921949020E-1,-1.294269711E-1,-1.214093715E-2,-8.628465235E-3
3.946058910E-1,-1.294269711E-1,-1.091920771E-2,-1.046105940E-2
3.970168290E-1,-1.288161129E-1,-9.697478265E-3,-1.290451828E-2
3.994278180E-1,-1.282052398E-1,-6.032289471E-3,-1.473711245E-2
4.018388080E-1,-1.269835234E-1,-1.145371469E-3,-1.901316643E-2
4.042497460E-1,-1.251509190E-1,2.519817324E-3,-2.328922041E-2
4.066607350E-1,-1.227074638E-1,4.963276442E-3,-2.573267929E-2
4.090717250E-1,-1.214857325E-1,8.017600514E-3,-2.939786762E-2
4.114826620E-1,-1.190422773E-1,1.107192412E-2,-3.306305781E-2
4.138936520E-1,-1.141553521E-1,1.412624773E-2,-3.550651670E-2
4.163046410E-1,-1.111010313E-1,1.412624773E-2,-3.672824427E-2
4.187155790E-1,-1.031597927E-1,1.473711245E-2,-3.733910993E-2
4.211265680E-1,-9.705114365E-2,1.534797717E-2,-3.733910993E-2
4.235375060E-1,-8.972076327E-2,1.656970754E-2,-3.611737862E-2
4.259484960E-1,-8.116865903E-2,1.473711245E-2,-3.550651670E-2
4.283594850E-1,-7.200568914E-2,1.290451828E-2,-3.428478539E-2
4.307704230E-1,-6.345357746E-2,1.168278884E-2,-3.306305781E-2
4.331814120E-1,-5.551233515E-2,9.850194678E-3,-3.306305781E-2
4.355924020E-1,-4.757109284E-2,8.628465235E-3,-3.306305781E-2
4.380033390E-1,-4.085158184E-2,4.352411721E-3,-3.489565104E-2
4.404143290E-1,-3.413207084E-2,2.519817324E-3,-3.428478539E-2
4.428253180E-1,-3.107774630E-2,-2.977965865E-3,-3.489565104E-2
4.452362560E-1,-2.496909723E-2,-8.475748822E-3,-3.672824427E-2
4.476472460E-1,-2.191477455E-2,-1.336266659E-2,-3.733910993E-2
4.500582350E-1,-1.763872057E-2,-1.763872057E-2,-3.794997558E-2
4.524691730E-1,-1.886045001E-2,-2.313650399E-2,-3.794997558E-2
4.548801620E-1,-1.824958436E-2,-2.619082667E-2,-3.733910993E-2
4.572911000E-1,-1.886045001E-2,-2.863428742E-2,-3.611737862E-2
4.597020890E-1,-1.947131567E-2,-2.985601686E-2,-3.489565104E-2
4.621130790E-1,-1.763872057E-2,-2.802342176E-2,-3.306305781E-2
4.645240680E-1,-2.008217946E-2,-2.985601686E-2,-3.061959706E-2
4.669350060E-1,-2.130390890E-2,-2.741255611E-2,-2.756527252E-2
4.693459960E-1,-2.496909723E-2,-2.680169232E-2,-2.451094985E-2
4.717569330E-1,-2.802342176E-2,-2.374736778E-2,-2.023489587E-2
4.741679230E-1,-3.046688065E-2,-2.008217946E-2,-1.901316643E-2
4.765789120E-1,-3.413207084E-2,-1.763872057E-2,-1.534797717E-2
4.789898500E-1,-3.840812296E-2,-1.641699113E-2,-1.412624773E-2
4.814008390E-1,-4.146244749E-2,-1.275180187E-2,-1.168278884E-2
4.838118290E-1,-4.573849961E-2,-9.697478265E-3,-9.239329956E-3
4.862228180E-1,-4.940368980E-2,-6.643154658E-3,-7.406735327E-3
4.886337560E-1,-5.551233515E-2,-5.421424750E-3,-8.017600514E-3
4.910447460E-1,-6.039925665E-2,-3.588830587E-3,-6.185005885E-3
4.934556830E-1,-6.345357746E-2,7.635809743E-5,-3.130682046E-3
4.958666730E-1,-6.895136088E-2,2.519817324E-3,-1.298087649E-3
4.982776620E-1,-7.139482349E-2,6.795870606E-3,-1.298087649E-3
5.006886000E-1,-7.444914430E-2,1.046105940E-2,-6.872228696E-4
5.030995890E-1,-7.750347257E-2,1.473711245E-2,5.345066893E-4
5.055105790E-1,-8.116865903E-2,1.962403022E-2,1.145371469E-3
5.079215160E-1,-8.239039034E-2,2.390008420E-2,3.588830587E-3
5.103325060E-1,-8.300124854E-2,2.817613818E-2,2.977965865E-3
5.127434960E-1,-8.239039034E-2,3.000873141E-2,5.421424750E-3
5.151544330E-1,-8.361211419E-2,3.061959706E-2,7.864884101E-3
5.175654230E-1,-8.300124854E-2,3.245219216E-2,1.030834299E-2
5.199764120E-1,-8.300124854E-2,3.184132650E-2,1.091920771E-2
5.223873500E-1,-8.116865903E-2,3.000873141E-2,1.336266659E-2
5.247983390E-1,-7.872519642E-2,2.878700197E-2,1.397353224E-2
5.272093290E-1,-7.628174126E-2,2.451094985E-2,1.397353224E-2
5.296202660E-1,-7.261654735E-2,2.084576152E-2,1.458439697E-2
5.320312560E-1,-6.895136088E-2,1.534797717E-2,1.397353224E-2
5.344422460E-1,-6.345357746E-2,1.046105940E-2,1.214093715E-2
5.368531830E-1,-5.734493211E-2,5.574141163E-3,1.214093715E-2
5.392641730E-1,-5.245801434E-2,6.872228696E-4,1.153007243E-2
5.416751620E-1,-4.634936526E-2,-5.421424750E-3,9.086613543E-3
5.440861000E-1,-4.146244749E-2,-1.091920771E-2,9.086613543E-3
5.464970890E-1,-3.535379842E-2,-1.275180187E-2,8.475748822E-3
5.489080270E-1,-2.741255611E-2,-1.458439697E-2,8.475748822E-3
5.513190160E-1,-2.252563834E-2,-1.702785492E-2,8.475748822E-3
5.537300060E-1,-1.641699113E-2,-1.886045001E-2,9.086613543E-3
5.561409430E-1,-1.091920771E-2,-1.763872057E-2,8.475748822E-3
5.585519330E-1,-7.254019380E-3,-2.130390890E-2,7.864884101E-3
5.609629230E-1,-2.977965865E-3,-2.374736778E-2,8.475748822E-3
5.633738600E-1,1.908952487E-3,-2.557996288E-2,7.864884101E-3
5.657848500E-1,6.795870606E-3,-2.619082667E-2,7.864884101E-3
5.681958390E-1,1.168278884E-2,-2.680169232E-2,8.475748822E-3
5.706067770E-1,1.534797717E-2,-2.924515121E-2,7.864884101E-3
5.730177660E-1,2.267835476E-2,-2.985601686E-2,7.864884101E-3
5.754287560E-1,2.634354308E-2,-3.291033953E-2,8.475748822E-3
5.778396930E-1,2.878700197E-2,-3.413207084E-2,7.254019380E-3
5.802506830E-1,3.428478539E-2,-3.168861195E-2,8.475748822E-3
5.826616730E-1,3.733910993E-2,-3.168861195E-2,9.086613543E-3
5.850726100E-1,3.917170316E-2,-2.924515121E-2,9.086613543E-3
5.874836000E-1,3.978256881E-2,-2.741255611E-2,1.030834299E-2
5.898945890E-1,3.978256881E-2,-2.313650399E-2,1.030834299E-2
5.923055270E-1,3.733910993E-2,-2.069304511E-2,1.336266659E-2
5.947165160E-1,3.611737862E-2,-1.580612548E-2,1.336266659E-2
5.971275060E-1,3.306305781E-2,-9.086613543E-3,1.519526169E-2
5.995384430E-1,2.878700197E-2,-5.345066893E-4,1.824958436E-2
6.019494330E-1,2.390008420E-2,6.795870606E-3,2.069304511E-2
6.043603710E-1,1.962403022E-2,1.534797717E-2,2.130390890E-2
6.067713600E-1,1.595884189E-2,2.328922041E-2,2.130390890E-2
6.091823500E-1,1.107192412E-2,3.184132650E-2,2.252563834E-2
6.115933390E-1,6.795870606E-3,3.550651670E-2,2.435823344E-2
6.140042770E-1,3.741546767E-3,3.917170316E-2,2.557996288E-2
6.164152660E-1,6.872228696E-4,3.978256881E-2,2.435823344E-2
6.188262040E-1,-6.643154658E-3,3.550651670E-2,2.252563834E-2
6.212371930E-1,-9.697478265E-3,3.184132650E-2,2.191477455E-2
6.236481830E-1,-1.214093715E-2,2.390008420E-2,2.130390890E-2
6.260591210E-1,-1.336266659E-2,1.595884189E-2,2.008217946E-2
6.284701100E-1,-1.580612548E-2,5.574141163E-3,1.947131567E-2
6.308811000E-1,-1.824958436E-2,-2.367100911E-3,1.886045001E-2
6.332920370E-1,-1.947131567E-2,-9.697478265E-3,1.763872057E-2
6.357030270E-1,-2.130390890E-2,-1.580612548E-2,1.763872057E-2
6.381140160E-1,-2.191477455E-2,-2.130390890E-2,1.641699113E-2
6.405249540E-1,-2.191477455E-2,-2.374736778E-2,1.458439697E-2
6.429359430E-1,-2.313650399E-2,-2.619082667E-2,1.458439697E-2
6.453469330E-1,-2.191477455E-2,-2.680169232E-2,1.397353224E-2
6.477578710E-1,-1.824958436E-2,-2.496909723E-2,1.275180187E-2
6.501688600E-1,-1.580612548E-2,-2.191477455E-2,1.214093715E-2
6.525798500E-1,-1.275180187E-2,-2.008217946E-2,1.336266659E-2
6.549907870E-1,-8.475748822E-3,-1.763872057E-2,1.397353224E-2
6.574017770E-1,-2.367100911E-3,-1.397353224E-2,1.519526169E-2
6.598127660E-1,3.130682046E-3,-1.153007243E-2,1.397353224E-2
6.622237040E-1,8.628465235E-3,-9.086613543E-3,1.519526169E-2
6.646346930E-1,1.656970754E-2,-6.032289471E-3,1.580612548E-2
6.670456830E-1,2.023489587E-2,-2.367100911E-3,1.458439697E-2
6.694566210E-1,2.756527252E-2,2.519817324E-3,1.580612548E-2
6.718676100E-1,3.245219216E-2,8.628465235E-3,1.580612548E-2
6.742785480E-1,3.733910993E-2,1.351538301E-2,1.519526169E-2
6.766895370E-1,4.161516204E-2,1.901316643E-2,1.458439697E-2
6.791005270E-1,4.589121789E-2,2.390008420E-2,1.580612548E-2
6.815114640E-1,4.894553870E-2,2.634354308E-2,1.702785492E-2
6.839224540E-1,4.955640435E-2,2.573267929E-2,1.702785492E-2
6.863334430E-1,5.199986324E-2,2.512181364E-2,1.824958436E-2
6.887443810E-1,5.138900131E-2,2.206749097E-2,1.886045001E-2
6.911553710E-1,4.955640435E-2,1.840230078E-2,2.008217946E-2
6.935663600E-1,5.016727000E-2,1.290451828E-2,2.069304511E-2
6.959772980E-1,4.894553870E-2,9.239329956E-3,2.191477455E-2
6.983882870E-1,4.466948658E-2,4.352411721E-3,2.313650399E-2
7.007992770E-1,4.283689335E-2,-1.145371469E-3,2.313650399E-2
7.032102140E-1,3.978256881E-2,-6.643154658E-3,2.252563834E-2
7.056212040E-1,3.428478539E-2,-1.275180187E-2,2.313650399E-2
7.080321930E-1,3.123046272E-2,-1.580612548E-2,2.252563834E-2
7.104431310E-1,2.390008420E-2,-2.008217946E-2,2.008217946E-2
7.128541210E-1,1.840230078E-2,-2.374736778E-2,1.886045001E-2
7.152651100E-1,1.107192412E-2,-2.680169232E-2,1.580612548E-2
7.176760480E-1,1.908952487E-3,-2.619082667E-2,1.336266659E-2
7.200870370E-1,-4.810560029E-3,-2.496909723E-2,1.030834299E-2
7.224980270E-1,-1.397353224E-2,-2.252563834E-2,7.864884101E-3
7.249089640E-1,-2.313650399E-2,-1.886045001E-2,6.643154658E-3
7.273199540E-1,-3.352120519E-2,-1.336266659E-2,5.421424750E-3
7.297309430E-1,-4.268417507E-2,-6.032289471E-3,2.977965865E-3
7.321418810E-1,-5.184714869E-2,1.908952487E-3,2.977965865E-3
7.345528710E-1,-6.345357746E-2,9.239329956E-3,2.977965865E-3
7.369638600E-1,-7.383827865E-2,1.901316643E-2,1.756236190E-3
7.393747980E-1,-8.544471115E-2,2.817613818E-2,3.588830587E-3
7.417857870E-1,-9.582941234E-2,3.672824427E-2,2.977965865E-3
7.441967770E-1,-1.056032479E-1,4.283689335E-2,4.199695308E-3
7.466077140E-1,-1.165988147E-1,4.772381112E-2,4.810560029E-3
7.490187040E-1,-1.269835234E-1,4.955640435E-2,6.032289471E-3
7.514296410E-1,-1.379790753E-1,4.833467677E-2,9.086613543E-3
7.538406310E-1,-1.453094631E-1,4.589121789E-2,9.086613543E-3
7.562516210E-1,-1.514181048E-1,4.161516204E-2,1.091920771E-2
7.586625580E-1,-1.581376195E-1,3.611737862E-2,1.214093715E-2
7.610735480E-1,-1.636354029E-1,3.184132650E-2,1.214093715E-2
7.634845370E-1,-1.673005968E-1,2.817613818E-2,1.458439697E-2
7.658954750E-1,-1.691331863E-1,2.451094985E-2,1.580612548E-2
7.683064640E-1,-1.715766490E-1,2.206749097E-2,1.641699113E-2
7.707174540E-1,-1.740200967E-1,1.962403022E-2,1.763872057E-2
7.731283910E-1,-1.752418280E-1,2.084576152E-2,1.886045001E-2
7.755393810E-1,-1.758527011E-1,2.512181364E-2,1.886045001E-2
7.779503710E-1,-1.764635593E-1,2.878700197E-2,2.130390890E-2
7.803613080E-1,-1.770744324E-1,3.306305781E-2,2.252563834E-2
7.827722980E-1,-1.746309698E-1,4.039343446E-2,2.313650399E-2
7.851832870E-1,-1.740200967E-1,4.589121789E-2,2.374736778E-2
7.875942250E-1,-1.715766490E-1,5.016727000E-2,2.496909723E-2
7.900052140E-1,-1.697440445E-1,5.322159454E-2,2.435823344E-2
7.924162040E-1,-1.660788655E-1,5.627591908E-2,2.191477455E-2
7.948271410E-1,-1.599702090E-1,5.688678101E-2,2.069304511E-2
7.972381310E-1,-1.544724256E-1,5.383246019E-2,1.763872057E-2
7.996491210E-1,-1.471420527E-1,4.894553870E-2,1.580612548E-2
8.020600580E-1,-1.398116797E-1,4.466948658E-2,1.275180187E-2
8.044710480E-1,-1.324812919E-1,3.917170316E-2,1.153007243E-2
8.068819850E-1,-1.251509190E-1,3.428478539E-2,8.475748822E-3
8.092929750E-1,-1.172096804E-1,2.878700197E-2,9.086613543E-3
8.117039640E-1,-1.086575761E-1,2.206749097E-2,6.643154658E-3
8.141149540E-1,-1.013271958E-1,1.351538301E-2,3.588830587E-3
8.165258910E-1,-9.521854669E-2,4.352411721E-3,2.367100911E-3
8.189368810E-1,-8.727730811E-2,-4.199695308E-3,1.145371469E-3
8.213478180E-1,-8.055779338E-2,-1.091920771E-2,-2.519817324E-3
8.237588080E-1,-7.322741300E-2,-1.824958436E-2,-5.574141163E-3
8.261697980E-1,-6.772962958E-2,-2.680169232E-2,-7.406735327E-3
8.285807870E-1,-6.101011857E-2,-3.352120519E-2,-1.046105940E-2
8.309917250E-1,-5.795579776E-2,-3.840812296E-2,-1.290451828E-2
8.334027140E-1,-5.306887627E-2,-4.451677203E-2,-1.412624773E-2
8.358137040E-1,-4.879282415E-2,-4.879282415E-2,-1.656970754E-2
8.382246410E-1,-4.573849961E-2,-5.001455545E-2,-1.901316643E-2
8.406356310E-1,-4.207331315E-2,-5.001455545E-2,-2.084576152E-2
8.430465680E-1,-4.085158184E-2,-4.879282415E-2,-2.084576152E-2
8.454575580E-1,-3.840812296E-2,-4.512763396E-2,-2.267835476E-2
8.478685480E-1,-3.596466407E-2,-4.085158184E-2,-2.267835476E-2
8.502794850E-1,-3.229947388E-2,-3.474293277E-2,-2.390008420E-2
8.526904750E-1,-3.046688065E-2,-3.291033953E-2,-2.451094985E-2
8.551014640E-1,-2.680169232E-2,-3.046688065E-2,-2.634354308E-2
8.575124020E-1,-2.619082667E-2,-3.046688065E-2,-2.695440874E-2
8.599233910E-1,-2.191477455E-2,-3.229947388E-2,-2.695440874E-2
8.623343810E-1,-1.947131567E-2,-3.718639165E-2,-2.756527252E-2
8.647453180E-1,-1.702785492E-2,-4.146244749E-2,-2.817613818E-2
8.671563080E-1,-1.397353224E-2,-4.818195850E-2,-2.939786762E-2
8.695672980E-1,-1.091920771E-2,-5.490147322E-2,-2.817613818E-2
8.719782350E-1,-9.697478265E-3,-6.284271181E-2,-2.756527252E-2
8.743892250E-1,-8.475748822E-3,-6.834049523E-2,-2.390008420E-2
8.768002140E-1,-4.199695308E-3,-7.139482349E-2,-2.084576152E-2
8.792111520E-1,-2.367100911E-3,-7.506000996E-2,-1.718057133E-2
8.816221410E-1,1.298087649E-3,-7.383827865E-2,-1.290451828E-2
8.840331310E-1,3.130682046E-3,-7.322741300E-2,-6.795870606E-3
8.864440680E-1,6.795870606E-3,-7.200568914E-2,-1.298087649E-3
8.888550580E-1,1.351538301E-2,-6.956222653E-2,4.810560029E-3
8.912660480E-1,1.901316643E-2,-6.589704007E-2,9.086613543E-3
8.936769850E-1,2.267835476E-2,-6.101011857E-2,1.458439697E-2
8.960879750E-1,2.878700197E-2,-5.306887627E-2,1.886045001E-2
8.984989640E-1,3.489565104E-2,-4.268417507E-2,2.374736778E-2
9.009099020E-1,3.611737862E-2,-3.474293277E-2,2.802342176E-2
9.033208910E-1,4.039343446E-2,-2.252563834E-2,3.107774630E-2
9.057318290E-1,4.466948658E-2,-1.336266659E-2,3.413207084E-2
9.081428180E-1,4.833467677E-2,-4.810560029E-3,3.535379842E-2
9.105538080E-1,5.322159454E-2,6.872228696E-4,4.024071619E-2
9.129647980E-1,5.994110554E-2,5.574141163E-3,4.207331315E-2
9.153757350E-1,6.360629201E-2,8.017600514E-3,4.573849961E-2
9.177867250E-1,6.788235158E-2,9.239329956E-3,4.879282415E-2
9.201976620E-1,7.215840369E-2,1.046105940E-2,5.123628303E-2
9.226086520E-1,7.582359016E-2,8.628465235E-3,5.429060757E-2
9.250196410E-1,7.826705277E-2,6.795870606E-3,5.612320080E-2
9.274305790E-1,8.132137358E-2,5.574141163E-3,5.856665969E-2
9.298415680E-1,8.132137358E-2,1.908952487E-3,5.917752534E-2
9.322525580E-1,8.315397054E-2,-5.345066893E-4,6.039925665E-2
9.346634960E-1,8.437569439E-2,-1.145371469E-3,6.101011857E-2
9.370744850E-1,8.254310489E-2,-4.199695308E-3,6.039925665E-2
9.394854750E-1,8.315397054E-2,-7.254019380E-3,5.795579776E-2
9.418964120E-1,8.193223923E-2,-9.697478265E-3,5.551233515E-2
9.443074020E-1,8.071050793E-2,-1.397353224E-2,5.367974192E-2
9.467183910E-1,8.009964228E-2,-1.886045001E-2,5.123628303E-2
9.491293290E-1,7.765618712E-2,-2.557996288E-2,4.757109284E-2
9.515403180E-1,7.582359016E-2,-3.291033953E-2,4.512763396E-2
9.539513080E-1,7.399099320E-2,-3.962985426E-2,4.268417507E-2
9.563622460E-1,7.154753804E-2,-4.329504073E-2,3.962985426E-2
9.587732350E-1,6.849320978E-2,-4.757109284E-2,3.779725730E-2
9.611842250E-1,6.543888897E-2,-4.940368980E-2,3.474293277E-2
9.635951620E-1,6.055197120E-2,-4.940368980E-2,3.291033953E-2
9.660061520E-1,5.566505343E-2,-4.757109284E-2,3.046688065E-2
9.684171410E-1,4.894553870E-2,-4.512763396E-2,2.741255611E-2
9.708280790E-1,4.222602770E-2,-4.146244749E-2,2.435823344E-2
9.732390680E-1,3.306305781E-2,-3.718639165E-2,2.191477455E-2
9.756500580E-1,2.451094985E-2,-3.535379842E-2,1.824958436E-2
9.780609960E-1,1.473711245E-2,-3.168861195E-2,1.702785492E-2
9.804719850E-1,4.352411721E-3,-2.924515121E-2,1.519526169E-2
9.828829750E-1,-7.254019380E-3,-2.741255611E-2,1.275180187E-2
9.852939120E-1,-1.641699113E-2,-2.435823344E-2,7.864884101E-3
9.877049020E-1,-2.619082667E-2,-2.191477455E-2,6.032289471E-3
9.901158390E-1,-3.352120519E-2,-1.763872057E-2,3.588830587E-3
9.925268290E-1,-4.329504073E-2,-1.458439697E-2,-7.635809743E-5
9.949378180E-1,-5.123628303E-2,-1.153007243E-2,-1.908952487E-3
9.973488080E-1,-5.856665969E-2,-1.030834299E-2,-5.574141163E-3
9.997597460E-1,-6.284271181E-2,-9.086613543E-3,-8.017600514E-3
1.002170735E0,-7.139482349E-2,-1.091920771E-2,-9.850194678E-3
1.004581673E0,-7.567087561E-2,-1.397353224E-2,-1.107192412E-2
1.006992662E0,-8.177952468E-2,-1.824958436E-2,-1.168278884E-2
1.009403652E0,-8.849903196E-2,-2.069304511E-2,-1.229365356E-2
1.011814589E0,-9.277509153E-2,-2.680169232E-2,-1.168278884E-2
1.014225579E0,-9.766200930E-2,-3.046688065E-2,-1.229365356E-2
1.016636568E0,-1.013271958E-1,-3.413207084E-2,-1.107192412E-2
1.019047506E0,-1.043815166E-1,-3.840812296E-2,-1.168278884E-2
1.021458496E0,-1.092684343E-1,-3.962985426E-2,-1.290451828E-2
1.023869485E0,-1.117118970E-1,-4.268417507E-2,-1.473711245E-2
1.026280423E0,-1.159879491E-1,-4.573849961E-2,-1.351538301E-2
1.028691412E0,-1.178205460E-1,-4.757109284E-2,-1.595884189E-2
1.031102402E0,-1.208748668E-1,-5.062541738E-2,-1.779143699E-2
1.033513339E0,-1.227074638E-1,-5.490147322E-2,-2.084576152E-2
1.035924329E0,-1.245400533E-1,-5.551233515E-2,-2.267835476E-2
1.038335318E0,-1.233183295E-1,-5.734493211E-2,-2.328922041E-2
1.040746256E0,-1.220965981E-1,-5.917752534E-2,-2.328922041E-2
1.043157246E0,-1.214857325E-1,-5.917752534E-2,-2.634354308E-2
1.045568235E0,-1.202640012E-1,-5.978839099E-2,-2.573267929E-2
1.047979173E0,-1.178205460E-1,-5.612320080E-2,-2.451094985E-2
1.050390162E0,-1.165988147E-1,-5.123628303E-2,-2.267835476E-2
1.052801152E0,-1.141553521E-1,-4.512763396E-2,-2.267835476E-2
1.055212089E0,-1.129336283E-1,-3.352120519E-2,-1.901316643E-2
1.057623079E0,-1.104901657E-1,-2.191477455E-2,-1.718057133E-2
1.060034068E0,-1.123227626E-1,-1.030834299E-2,-1.718057133E-2
1.062445006E0,-1.104901657E-1,3.130682046E-3,-1.534797717E-2
1.064855996E0,-1.104901657E-1,1.779143699E-2,-1.473711245E-2
1.067266985E0,-1.111010313E-1,2.878700197E-2,-1.473711245E-2
1.069677923E0,-1.141553521E-1,4.039343446E-2,-1.412624773E-2
1.072088912E0,-1.129336283E-1,5.016727000E-2,-1.351538301E-2
1.074499902E0,-1.147662178E-1,5.505418777E-2,-1.229365356E-2
1.076910839E0,-1.159879491E-1,6.177370250E-2,-1.107192412E-2
1.079321829E0,-1.196531355E-1,6.299543381E-2,-8.628465235E-3
1.081732818E0,-1.251509190E-1,6.238456443E-2,-5.574141163E-3
1.084143756E0,-1.288161129E-1,5.933023989E-2,-3.130682046E-3
1.086554746E0,-1.343138963E-1,5.566505343E-2,5.345066893E-4
1.088965735E0,-1.398116797E-1,5.077813566E-2,2.367100911E-3
1.091376673E0,-1.422551423E-1,4.711294547E-2,3.588830587E-3
1.093787662E0,-1.465311944E-1,4.039343446E-2,5.421424750E-3
1.096198652E0,-1.489746422E-1,3.611737862E-2,5.421424750E-3
1.098609589E0,-1.514181048E-1,3.184132650E-2,3.588830587E-3
1.101020579E0,-1.532506943E-1,2.756527252E-2,1.145371469E-3
1.103431516E0,-1.538615674E-1,2.512181364E-2,-1.298087649E-3
1.105842506E0,-1.563050300E-1,2.023489587E-2,-4.963276442E-3
1.108253496E0,-1.569158882E-1,1.718057133E-2,-7.406735327E-3
1.110664485E0,-1.575267613E-1,1.351538301E-2,-1.107192412E-2
1.113075423E0,-1.599702090E-1,7.406735327E-3,-1.229365356E-2
1.115486412E0,-1.611919403E-1,-1.145371469E-3,-1.351538301E-2
1.117897350E0,-1.599702090E-1,-8.475748822E-3,-1.351538301E-2
1.120308339E0,-1.605810821E-1,-1.824958436E-2,-1.412624773E-2
1.122719329E0,-1.599702090E-1,-3.046688065E-2,-1.351538301E-2
1.125130266E0,-1.556941569E-1,-4.024071619E-2,-1.107192412E-2
1.127541256E0,-1.526398361E-1,-4.879282415E-2,-9.239329956E-3
1.129952246E0,-1.489746422E-1,-5.429060757E-2,-9.239329956E-3
1.132363183E0,-1.465311944E-1,-5.673406646E-2,-8.017600514E-3
1.134774173E0,-1.404225379E-1,-5.551233515E-2,-8.017600514E-3
1.137185162E0,-1.349247545E-1,-5.367974192E-2,-6.185005885E-3
1.139596100E0,-1.294269711E-1,-4.757109284E-2,-6.185005885E-3
1.142007089E0,-1.245400533E-1,-3.840812296E-2,-6.795870606E-3
1.144418079E0,-1.178205460E-1,-2.802342176E-2,-6.795870606E-3
1.146829016E0,-1.104901657E-1,-1.519526169E-2,-8.017600514E-3
1.149240006E0,-1.056032479E-1,-4.199695308E-3,-6.185005885E-3
1.151650996E0,-9.827287495E-2,8.017600514E-3,-4.963276442E-3
1.154061933E0,-9.155336022E-2,1.962403022E-2,-6.185005885E-3
1.156472923E0,-8.544471115E-2,3.000873141E-2,-7.406735327E-3
1.158883912E0,-7.811433077E-2,3.978256881E-2,-6.795870606E-3
1.161294850E0,-7.261654735E-2,4.528035223E-2,-5.574141163E-3
1.163705839E0,-6.711876392E-2,4.711294547E-2,-3.741546767E-3
1.166116829E0,-5.978839099E-2,4.894553870E-2,-2.519817324E-3
1.168527766E0,-5.367974192E-2,4.833467677E-2,5.345066893E-4
1.170938756E0,-4.757109284E-2,4.405862093E-2,4.810560029E-3
1.173349746E0,-4.024071619E-2,3.917170316E-2,5.421424750E-3
1.175760683E0,-3.535379842E-2,3.428478539E-2,7.864884101E-3
1.178171673E0,-2.863428742E-2,3.184132650E-2,5.421424750E-3
1.180582662E0,-2.374736778E-2,2.817613818E-2,4.199695308E-3
1.182993600E0,-1.947131567E-2,2.695440874E-2,1.756236190E-3
1.185404589E0,-1.580612548E-2,2.634354308E-2,-6.872228696E-4
1.187815579E0,-1.091920771E-2,2.756527252E-2,-3.130682046E-3
1.190226516E0,-8.475748822E-3,3.245219216E-2,-9.239329956E-3
1.192637506E0,-4.810560029E-3,3.917170316E-2,-1.351538301E-2
1.195048496E0,-1.756236190E-3,4.405862093E-2,-1.656970754E-2
1.197459433E0,7.635809743E-5,4.711294547E-2,-1.962403022E-2
1.199870423E0,-1.756236190E-3,4.528035223E-2,-2.023489587E-2
1.202281412E0,-1.756236190E-3,4.344775900E-2,-1.962403022E-2
1.204692350E0,-4.199695308E-3,3.672824427E-2,-1.840230078E-2
1.207103339E0,-6.032289471E-3,2.878700197E-2,-1.595884189E-2
1.209514329E0,-7.254019380E-3,1.962403022E-2,-1.412624773E-2
1.211925266E0,-7.864884101E-3,7.406735327E-3,-1.351538301E-2
1.214336256E0,-7.254019380E-3,-3.588830587E-3,-1.473711245E-2
1.216747193E0,-6.032289471E-3,-1.458439697E-2,-1.595884189E-2
1.219158183E0,-2.977965865E-3,-2.557996288E-2,-1.901316643E-2
1.221569173E0,6.872228696E-4,-3.596466407E-2,-2.145662531E-2
1.223980110E0,4.352411721E-3,-4.268417507E-2,-2.390008420E-2
1.226391100E0,6.795870606E-3,-4.879282415E-2,-2.573267929E-2
1.228802089E0,1.168278884E-2,-5.123628303E-2,-2.878700197E-2
1.231213027E0,1.351538301E-2,-5.123628303E-2,-3.000873141E-2
1.233624016E0,1.473711245E-2,-5.123628303E-2,-3.061959706E-2
1.236035006E0,1.534797717E-2,-4.818195850E-2,-3.184132650E-2
1.238445943E0,1.534797717E-2,-4.512763396E-2,-3.123046272E-2
1.240856933E0,1.412624773E-2,-4.146244749E-2,-3.000873141E-2
1.243267923E0,1.168278884E-2,-3.657552972E-2,-2.878700197E-2
1.245678860E0,8.628465235E-3,-3.046688065E-2,-2.878700197E-2
1.248089850E0,6.795870606E-3,-2.557996288E-2,-2.817613818E-2
1.250500839E0,3.741546767E-3,-2.130390890E-2,-2.817613818E-2
1.252911777E0,2.519817324E-3,-1.519526169E-2,-2.939786762E-2
1.255322766E0,1.298087649E-3,-1.091920771E-2,-3.123046272E-2
1.257733756E0,1.908952487E-3,-7.254019380E-3,-3.367391974E-2
1.260144693E0,1.908952487E-3,-1.145371469E-3,-3.611737862E-2
1.262555683E0,1.908952487E-3,2.519817324E-3,-3.733910993E-2
1.264966673E0,3.741546767E-3,3.741546767E-3,-3.856083751E-2
1.267377610E0,6.185005885E-3,5.574141163E-3,-4.161516204E-2
1.269788600E0,8.628465235E-3,4.963276442E-3,-4.100430012E-2
1.272199589E0,1.046105940E-2,2.519817324E-3,-4.100430012E-2
1.274610527E0,1.290451828E-2,-1.145371469E-3,-3.917170316E-2
1.277021516E0,1.534797717E-2,-6.643154658E-3,-3.550651670E-2
1.279432506E0,1.412624773E-2,-1.336266659E-2,-3.306305781E-2
1.281843443E0,1.290451828E-2,-2.069304511E-2,-3.000873141E-2
1.284254433E0,1.473711245E-2,-2.496909723E-2,-2.634354308E-2
1.286665423E0,1.473711245E-2,-2.985601686E-2,-2.145662531E-2
1.289076360E0,1.473711245E-2,-3.535379842E-2,-1.656970754E-2
1.291487350E0,1.412624773E-2,-3.962985426E-2,-1.290451828E-2
1.293898339E0,1.473711245E-2,-4.329504073E-2,-9.239329956E-3
1.296309277E0,1.534797717E-2,-4.390590638E-2,-6.185005885E-3
1.298720266E0,1.595884189E-2,-4.512763396E-2,-3.130682046E-3
1.301131256E0,1.779143699E-2,-4.634936526E-2,-6.872228696E-4
1.303542193E0,1.840230078E-2,-4.451677203E-2,1.145371469E-3
1.305953183E0,1.840230078E-2,-4.329504073E-2,1.756236190E-3
1.308364173E0,1.962403022E-2,-3.962985426E-2,6.032289471E-3
1.310775110E0,1.901316643E-2,-3.229947388E-2,8.475748822E-3
1.313186100E0,1.595884189E-2,-2.496909723E-2,1.030834299E-2
1.315597089E0,1.229365356E-2,-1.763872057E-2,1.458439697E-2
1.318008027E0,8.628465235E-3,-7.864884101E-3,1.763872057E-2
1.320419016E0,3.741546767E-3,3.130682046E-3,2.130390890E-2
1.322830006E0,-1.145371469E-3,1.534797717E-2,2.435823344E-2
1.325240943E0,-8.475748822E-3,2.634354308E-2,2.680169232E-2
1.327651933E0,-1.519526169E-2,4.100430012E-2,2.924515121E-2
1.330062923E0,-2.252563834E-2,5.444332212E-2,3.046688065E-2
1.332473860E0,-2.802342176E-2,6.910407543E-2,3.046688065E-2
1.334884850E0,-3.291033953E-2,8.132137358E-2,2.863428742E-2
1.337295787E0,-3.718639165E-2,9.292780608E-2,2.435823344E-2
1.339706777E0,-4.329504073E-2,1.057559624E-1,1.824958436E-2
1.342117766E0,-4.757109284E-2,1.210275814E-1,1.091920771E-2
1.344528704E0,-5.123628303E-2,1.387426704E-1,-6.872228696E-4
1.346939693E0,-5.612320080E-2,1.631772518E-1,-1.534797717E-2
1.349350683E0,-6.162098423E-2,1.937204897E-1,-3.611737862E-2
1.351761621E0,-6.956222653E-2,2.291506529E-1,-6.238456443E-2
1.354172610E0,-7.689260691E-2,2.731329203E-1,-9.414953738E-2
1.356583600E0,-8.666644245E-2,3.183369040E-1,-1.314122826E-1
1.358994537E0,-9.216422588E-2,3.653734922E-1,-1.723402292E-1
1.361405527E0,-9.705114365E-2,4.124100804E-1,-2.163224965E-1
1.363816516E0,-1.007163301E-1,4.551706314E-1,-2.554178238E-1
1.366227506E0,-1.013271958E-1,4.942659736E-1,-2.902371287E-1
1.368638443E0,-1.025489271E-1,5.290852785E-1,-3.195586503E-1
1.371049433E0,-1.001054645E-1,5.608502030E-1,-3.488801420E-1
1.373460371E0,-1.013271958E-1,5.828413367E-1,-3.757582009E-1
1.375871360E0,-9.888373315E-2,6.011673212E-1,-3.983601928E-1
1.378282350E0,-9.705114365E-2,6.109411120E-1,-4.172970057E-1
1.380693287E0,-9.399681538E-2,6.139954329E-1,-4.295142889E-1
1.383104277E0,-8.727730811E-2,6.060542464E-1,-4.325686097E-1
1.385515266E0,-7.200568914E-2,5.797870159E-1,-4.289034307E-1
1.387926204E0,-5.245801434E-2,5.296961069E-1,-4.172970057E-1
1.390337193E0,-2.557996288E-2,4.570032060E-1,-4.008036554E-1
1.392748183E0,6.185005885E-3,3.647626340E-1,-3.818668425E-1
1.395159121E0,3.794997558E-2,2.651916742E-1,-3.562105298E-1
1.397570110E0,6.360629201E-2,1.601229310E-1,-3.268890083E-1
1.399981100E0,9.048434347E-2,5.688678101E-2,-2.859610617E-1
1.402392037E0,1.466839015E-1,1.779143699E-2,-2.028834671E-1
1.404803027E0,2.230419964E-1,2.756527252E-2,-1.033125073E-1
1.407214016E0,2.926805913E-1,5.383246019E-2,-1.840230078E-2
1.409624954E0,3.598757088E-1,1.136972085E-1,5.245801434E-2
1.412035943E0,4.270708263E-1,1.876118481E-1,9.888373315E-2
1.414446933E0,5.058723688E-1,2.383136153E-1,1.117118970E-1
1.416857871E0,5.944477916E-1,2.767980993E-1,1.141553521E-1
1.419268860E0,6.860775352E-1,3.128391206E-1,1.141553521E-1
1.421679850E0,7.789289355E-1,3.476584256E-1,1.184314117E-1
1.424090787E0,8.736129999E-1,3.830885887E-1,1.202640012E-1
1.426501777E0,9.707404971E-1,4.185187221E-1,1.214857325E-1
1.428912766E0,1.072754860E0,4.545597434E-1,1.245400533E-1
1.431323704E0,1.173547626E0,4.887681901E-1,1.275943816E-1
1.433734693E0,1.276783705E0,5.229766369E-1,1.294269711E-1
1.436145683E0,1.381241679E0,5.577958822E-1,1.324812919E-1
1.438556621E0,1.489975572E0,5.907825828E-1,1.355356276E-1
1.440967610E0,1.598098636E0,6.225475669E-1,1.385899484E-1
1.443378600E0,1.708054304E0,6.512582302E-1,1.416442692E-1
1.445789537E0,1.819231629E0,6.811906099E-1,1.465311944E-1
1.448200527E0,1.931019902E0,7.074577808E-1,1.501963735E-1
1.450611516E0,2.045251608E0,7.325032353E-1,1.538615674E-1
1.453022454E0,2.156429052E0,7.538834810E-1,1.599702090E-1
1.455433443E0,2.268217325E0,7.752637863E-1,1.654679924E-1
1.457844433E0,2.380005598E0,7.935897112E-1,1.703549176E-1
1.460255371E0,2.489961147E0,8.076395988E-1,1.758527011E-1
1.462666360E0,2.598084211E0,8.186351657E-1,1.813504845E-1
1.465077350E0,2.706207275E0,8.290198445E-1,1.874591261E-1
1.467488287E0,2.810665131E0,8.345176578E-1,1.929569095E-1
1.469899277E0,2.913901329E0,8.369610906E-1,2.002872825E-1
1.472310266E0,3.014693975E0,8.381828070E-1,2.070067972E-1
1.474721204E0,3.111821651E0,8.345176578E-1,2.118937224E-1
1.477132193E0,3.206505537E0,8.284090161E-1,2.192240953E-1
1.479543183E0,3.297524452E0,8.210785985E-1,2.253327519E-1
1.481954121E0,3.384878159E0,8.082504869E-1,2.338848561E-1
1.484365110E0,3.469788313E0,7.942005992E-1,2.412152290E-1
1.486776100E0,3.549811602E0,7.770963311E-1,2.473238707E-1
1.489187037E0,3.628613234E0,7.587704062E-1,2.534325123E-1
1.491598027E0,3.701306105E0,7.361684442E-1,2.601520419E-1
1.494008964E0,3.770333767E0,7.117338181E-1,2.674824297E-1
1.496419954E0,3.838750601E0,6.879100800E-1,2.742019296E-1
1.498830943E0,3.901669741E0,6.598103046E-1,2.803105712E-1
1.501241881E0,3.960923672E0,6.298779249E-1,2.864192128E-1
1.503652871E0,4.017123222E0,5.987238288E-1,2.931387424E-1
1.506063860E0,4.070879459E0,5.639045238E-1,2.986365259E-1
1.508474798E0,4.123413563E0,5.309178233E-1,3.041343093E-1
1.510885787E0,4.171671867E0,4.954876900E-1,3.108538091E-1
1.513296777E0,4.216876030E0,4.576140642E-1,3.157407343E-1
1.515707714E0,4.258414745E0,4.191296101E-1,3.212385178E-1
1.518118704E0,4.299342632E0,3.782016635E-1,3.261254430E-1
1.520529693E0,4.335383892E0,3.360520005E-1,3.304014802E-1
1.522940631E0,4.368370533E0,2.945131958E-1,3.352884054E-1
1.525351621E0,4.400746346E0,2.511417866E-1,3.383427262E-1
1.527762610E0,4.430067539E0,2.053269297E-1,3.420079052E-1
1.530173548E0,4.457556725E0,1.601229310E-1,3.456731141E-1
1.532584537E0,4.480769634E0,1.130863428E-1,3.487274349E-1
1.534995527E0,4.503371716E0,6.543888897E-2,3.517817557E-1
1.537406464E0,4.521697521E0,1.656970754E-2,3.542252183E-1
1.539817454E0,4.535747528E0,-3.229947388E-2,3.554469347E-1
1.542228443E0,4.547353745E0,-8.116865903E-2,3.566686809E-1
1.544639381E0,4.556516647E0,-1.294269711E-1,3.578903973E-1
1.547050371E0,4.562625408E0,-1.776852906E-1,3.578903973E-1
1.549461360E0,4.564457893E0,-2.259436101E-1,3.585012555E-1
1.551872298E0,4.563236237E0,-2.742019296E-1,3.591121435E-1
1.554283287E0,4.558960438E0,-3.200167716E-1,3.572795391E-1
1.556694277E0,4.549186230E0,-3.664425015E-1,3.554469347E-1
1.559105214E0,4.536969185E0,-4.092030525E-1,3.542252183E-1
1.561516204E0,4.273686409E0,-5.839103460E-1,3.505600393E-1
1.563927193E0,3.418475628E0,-1.144684196E0,3.468948305E-1
1.566338131E0,2.285321474E0,-1.798309565E0,2.748127878E-1
1.568749121E0,1.677511096E0,-2.129398346E0,2.253327519E-1
1.571160110E0,8.235220909E-1,-2.655352831E0,2.167806327E-1
1.573571048E0,3.091739416E-1,-2.968726397E0,2.173915058E-1
1.575982037E0,1.314122826E-1,-3.032256365E0,2.161697745E-1
1.578393027E0,1.326340139E-1,-3.016373873E0,2.173915058E-1
1.580803964E0,1.265253723E-1,-3.000491381E0,2.137263119E-1
1.583214954E0,1.167515293E-1,-2.970559120E0,2.106719911E-1
1.585625943E0,1.057559624E-1,-2.932685375E0,2.125045806E-1
1.588036881E0,1.014799103E-1,-2.896644354E0,2.100611329E-1
1.590447871E0,9.781472385E-2,-2.852051258E0,2.076176703E-1
1.592858860E0,9.109520912E-2,-2.798295259E0,2.057850659E-1
1.595269798E0,8.743002266E-2,-2.743317366E0,2.057850659E-1
1.597680787E0,8.865175396E-2,-2.685896158E0,2.021198869E-1
1.600091777E0,8.559742570E-2,-2.616868258E0,2.015090138E-1
1.602502714E0,8.132137358E-2,-2.538066864E0,2.002872825E-1
1.604913704E0,8.376483619E-2,-2.456210852E0,1.966221035E-1
1.607324693E0,8.743002266E-2,-2.365192175E0,1.954003721E-1
1.609735631E0,8.559742570E-2,-2.259512424E0,1.941786408E-1
1.612146621E0,8.743002266E-2,-2.141004801E0,1.899025887E-1
1.614557610E0,9.414953738E-2,-2.013944864E0,1.880699992E-1
1.616968548E0,9.903645515E-2,-1.868559003E0,1.868482679E-1
1.619379537E0,1.045342386E-1,-1.707901597E0,1.813504845E-1
1.621790527E0,1.124754772E-1,-1.533805132E0,1.770744324E-1
1.624201464E0,1.240819097E-1,-1.343215346E0,1.746309698E-1
1.626612454E0,1.369100660E-1,-1.131856084E0,1.709657758E-1
1.629023443E0,1.497382224E-1,-9.076687098E-1,1.660788655E-1
1.631434381E0,1.686750352E-1,-6.682097316E-1,1.624136716E-1
1.633845371E0,1.882227063E-1,-4.147008359E-1,1.581376195E-1
1.636256360E0,2.108247131E-1,-1.477529258E-1,1.526398361E-1
1.638667298E0,2.358701676E-1,1.289688200E-1,1.477529258E-1
1.641078287E0,2.651916742E-1,4.111883640E-1,1.434768587E-1
1.643489277E0,2.963457704E-1,7.013491392E-1,1.379790753E-1
1.645900214E0,3.311650753E-1,9.951750636E-1,1.337030232E-1
1.648311204E0,3.690386713E-1,1.287168503E0,1.306487024E-1
1.650722193E0,4.093557596E-1,1.577329278E0,1.263726503E-1
1.653133131E0,4.496728480E-1,1.865657449E0,1.227074638E-1
1.655544121E0,4.954876900E-1,2.144822598E0,1.202640012E-1
1.657955110E0,5.455785990E-1,2.411770582E0,1.165988147E-1
1.660366048E0,5.956695080E-1,2.666501045E0,1.153770834E-1
1.662777037E0,6.463713050E-1,2.903516769E0,1.135444939E-1
1.665188027E0,7.001274228E-1,3.120984554E0,1.147662178E-1
1.667598964E0,7.575486898E-1,3.319515467E0,1.147662178E-1
1.670009954E0,8.119156361E-1,3.494833708E0,1.178205460E-1
1.672420891E0,8.681151867E-1,3.645106554E0,1.208748668E-1
1.674831881E0,9.261473417E-1,3.771555424E0,1.239291951E-1
1.677242871E0,9.835686684E-1,3.875402451E0,1.282052398E-1
1.679653860E0,1.040379047E0,3.954204082E0,1.343138963E-1
1.682064798E0,1.095356941E0,4.008571148E0,1.410334110E-1
1.684475787E0,1.152778149E0,4.040336132E0,1.483637840E-1
1.686886777E0,1.207756042E0,4.050720692E0,1.556941569E-1
1.689297714E0,1.262122989E0,4.040946960E0,1.648571342E-1
1.691708704E0,1.317100763E0,4.012236118E0,1.746309698E-1
1.694119693E0,1.369635224E0,3.965810537E0,1.850156635E-1
1.696530631E0,1.422169566E0,3.902280569E0,1.954003721E-1
1.698941621E0,1.472260475E0,3.822257280E0,2.070067972E-1
1.701352558E0,1.525405765E0,3.729405880E0,2.192240953E-1
1.703763548E0,1.574885726E0,3.621893644E0,2.302196622E-1
1.706174537E0,1.623144031E0,3.502774954E0,2.430478185E-1
1.708585475E0,1.673845887E0,3.368995667E0,2.558759749E-1
1.710996464E0,1.722715020E0,3.224220753E0,2.705367506E-1
1.713407454E0,1.772195101E0,3.067839384E0,2.809214294E-1
1.715818391E0,1.822896838E0,2.899851561E0,2.937496006E-1
1.718229381E0,1.872987747E0,2.719646454E0,3.077994883E-1
1.720640371E0,1.922467828E0,2.529056549E0,3.212385178E-1
1.723051308E0,1.973169565E0,2.328692913E0,3.346775472E-1
1.725462298E0,2.024482250E0,2.115501165E0,3.456731141E-1
1.727873287E0,2.077016592E0,1.890702844E0,3.585012555E-1
1.730284225E0,2.131383657E0,1.656741619E0,3.713294268E-1
1.732695214E0,2.185750484E0,1.412395716E0,3.841575980E-1
1.735106204E0,2.241950035E0,1.157054305E0,3.945422769E-1
1.737517141E0,2.296927929E0,8.937715292E-1,4.055378437E-1
1.739928131E0,2.354959965E0,6.237692833E-1,4.140899479E-1
1.742339121E0,2.412992239E0,3.439932168E-1,4.256964028E-1
1.744750058E0,2.471635342E0,5.933023989E-2,4.348593652E-1
1.747161048E0,2.532110929E0,-2.289979309E-1,4.415788651E-1
1.749572037E0,2.589532137E0,-5.216021538E-1,4.489092529E-1
1.751982975E0,2.650618553E0,-8.154281378E-1,4.544070363E-1
1.754393964E0,2.713537693E0,-1.108032346E0,4.586831033E-1
1.756804954E0,2.774013281E0,-1.400025725E0,4.629591405E-1
1.759215891E0,2.833878040E0,-1.687743068E0,4.647917449E-1
1.761626881E0,2.896186352E0,-1.967519045E0,4.654026031E-1
1.764037871E0,2.956051111E0,-2.241186619E0,4.641808867E-1
1.766448808E0,3.017137527E0,-2.505079985E0,4.605156779E-1
1.768859798E0,3.075780630E0,-2.756145477E0,4.562396407E-1
1.771270787E0,3.133201838E0,-2.994993687E0,4.507418573E-1
1.773681725E0,3.190012217E0,-3.217959404E0,4.428006113E-1
1.776092714E0,3.245600939E0,-3.425653219E0,4.330267608E-1
1.778503704E0,3.299356937E0,-3.615632296E0,4.220311940E-1
1.780914641E0,3.351280451E0,-3.787285328E0,4.085921645E-1
1.783325631E0,3.402593136E0,-3.938168764E0,3.939314187E-1
1.785736621E0,3.450851440E0,-4.070115566E0,3.786598146E-1
1.788147558E0,3.497277260E0,-4.178849697E0,3.609447181E-1
1.790558548E0,3.541870356E0,-4.266203403E0,3.438405097E-1
1.792969537E0,3.583409071E0,-4.332787514E0,3.224602342E-1
1.795380475E0,3.623115301E0,-4.375547886E0,3.016908467E-1
1.797791464E0,3.660989046E0,-4.398760796E0,2.796997130E-1
1.800202454E0,3.694586515E0,-4.398149967E0,2.577085793E-1
1.802613391E0,3.728184223E0,-4.373715401E0,2.338848561E-1
1.805024381E0,3.756894827E0,-4.327900410E0,2.100611329E-1
1.807435371E0,3.785605431E0,-4.258872986E0,1.856265366E-1
1.809846308E0,3.811261654E0,-4.169686794E0,1.611919403E-1
1.812257298E0,3.833863735E0,-4.058509350E0,1.367573589E-1
1.814668287E0,3.852800608E0,-3.925951481E0,1.117118970E-1
1.817079225E0,3.869904757E0,-3.773846149E0,8.788817376E-2
1.819490214E0,3.883343697E0,-3.602193356E0,6.528617442E-2
1.821901204E0,3.894950151E0,-3.413435936E0,4.146244749E-2
1.824312141E0,3.904724121E0,-3.205742121E0,1.886045001E-2
1.826723131E0,3.910221815E0,-2.983998060E0,-2.519817324E-3
1.829134121E0,3.914497852E0,-2.748204231E0,-2.451094985E-2
1.831545058E0,3.916941404E0,-2.498360634E0,-4.344775900E-2
1.833956048E0,3.916330576E0,-2.239964724E0,-6.116283685E-2
1.836367037E0,3.910832644E0,-1.968129992E0,-7.887791097E-2
1.838777975E0,3.904724121E0,-1.692019105E0,-9.353867173E-2
1.841188964E0,3.896782875E0,-1.408577800E0,-1.069776937E-1
1.843599954E0,3.884565592E0,-1.121471405E0,-1.191949919E-1
1.846010891E0,3.872959137E0,-8.337540627E-1,-1.314122826E-1
1.848421881E0,3.857687473E0,-5.442041755E-1,-1.417969912E-1
1.850832871E0,3.840583324E0,-2.589302957E-1,-1.491273642E-1
1.853243808E0,3.820424795E0,2.390008420E-2,-1.564577371E-1
1.855654798E0,3.800266266E0,3.042870164E-1,-1.601229310E-1
1.858065787E0,3.777053356E0,5.761218667E-1,-1.637881249E-1
1.860476725E0,3.753840446E0,8.436806202E-1,-1.643989831E-1
1.862887714E0,3.728184223E0,1.101465583E0,-1.637881249E-1
1.865298704E0,3.698862553E0,1.348865747E0,-1.619555205E-1
1.867709641E0,3.671984434E0,1.590157390E0,-1.595120728E-1
1.870120631E0,3.642052174E0,1.821064234E0,-1.540142894E-1
1.872531621E0,3.609065533E0,2.042197227E0,-1.491273642E-1
1.874942558E0,3.576078892E0,2.251113176E0,-1.411861181E-1
1.877353548E0,3.540037870E0,2.447811604E0,-1.344666034E-1
1.879764537E0,3.503385782E0,2.632903576E0,-1.259144992E-1
1.882175475E0,3.466123104E0,2.808832645E0,-1.161406636E-1
1.884586464E0,3.425806046E0,2.971933603E0,-1.057559624E-1
1.886997454E0,3.383045435E0,3.121595383E0,-9.353867173E-2
1.889408391E0,3.339063168E0,3.259650707E0,-8.071050793E-2
1.891819381E0,3.295691729E0,3.383045435E0,-6.666062027E-2
1.894230371E0,3.246822596E0,3.494222879E0,-5.383246019E-2
1.896641308E0,3.196731806E0,3.591350317E0,-4.039343446E-2
1.899052298E0,3.144808292E0,3.671373606E0,-2.634354308E-2
1.901463287E0,3.090441227E0,3.736125231E0,-1.046105940E-2
1.903874225E0,3.033020020E0,3.785605431E0,2.977965865E-3
1.906285214E0,2.971933603E0,3.817370415E0,1.763872057E-2
1.908696204E0,2.911458015E0,3.831420183E0,3.229947388E-2
1.911107141E0,2.846095324E0,3.825922489E0,4.634936526E-2
1.913518131E0,2.779511213E0,3.800877094E0,6.101011857E-2
1.915929121E0,2.710483313E0,3.758727312E0,7.567087561E-2
1.918340058E0,2.640844822E0,3.695197344E0,8.910989761E-2
1.920751048E0,2.568151951E0,3.613952398E0,1.025489271E-1
1.923162037E0,2.492404699E0,3.513770580E0,1.153770834E-1
1.925572975E0,2.417879105E0,3.393430233E0,1.275943816E-1
1.927983964E0,2.340910196E0,3.256596565E0,1.404225379E-1
1.930394954E0,2.263330460E0,3.101436853E0,1.520289779E-1
1.932805891E0,2.186361313E0,2.932227373E0,1.624136716E-1
1.935216881E0,2.105727196E0,2.746524334E0,1.709657758E-1
1.937627871E0,2.027536631E0,2.547993422E0,1.807396114E-1
1.940038808E0,1.949956775E0,2.339077711E0,1.880699992E-1
1.942449798E0,1.871766090E0,2.119777203E0,1.966221035E-1
1.944860787E0,1.794186234E0,1.894978881E0,2.033416182E-1
1.947271725E0,1.720882416E0,1.664682865E0,2.100611329E-1
1.949682714E0,1.646356940E0,1.430110812E0,2.155589163E-1
1.952093704E0,1.574885726E0,1.194927812E0,2.210566849E-1
1.954504641E0,1.505247116E0,9.609666467E-1,2.259436101E-1
1.956915631E0,1.434997678E0,7.270054221E-1,2.302196622E-1
1.959326621E0,1.370246053E0,4.985420108E-1,2.332739830E-1
1.961737558E0,1.306716084E0,2.731329203E-1,2.357174456E-1
1.964148548E0,1.245018721E0,5.322159454E-2,2.375500351E-1
1.966559537E0,1.188208342E0,-1.618028134E-1,2.399934977E-1
1.968970475E0,1.129565358E0,-3.670533597E-1,2.430478185E-1
1.971381464E0,1.075809240E0,-5.680279136E-1,2.424369603E-1
1.973792454E0,1.023885727E0,-7.604503036E-1,2.424369603E-1
1.976203391E0,9.719622135E-1,-9.473749399E-1,2.430478185E-1
1.978614381E0,9.218713045E-1,-1.125747442E0,2.430478185E-1
1.981025371E0,8.748347163E-1,-1.296178699E0,2.430478185E-1
1.983436308E0,8.284090161E-1,-1.460501313E0,2.430478185E-1
1.985847298E0,7.832050323E-1,-1.619326115E0,2.424369603E-1
1.988258287E0,7.380009890E-1,-1.770209789E0,2.412152290E-1
1.990669225E0,6.958513260E-1,-1.914373875E0,2.412152290E-1
1.993080214E0,6.530908346E-1,-2.051207542E0,2.375500351E-1
1.995491152E0,6.109411120E-1,-2.182543516E0,2.381609082E-1
1.997902141E0,5.700132251E-1,-2.307159901E0,2.369391769E-1
2.000313131E0,5.290852785E-1,-2.423224211E0,2.357174456E-1
2.002724121E0,4.887681901E-1,-2.533179998E0,2.338848561E-1
2.005135058E0,4.484511018E-1,-2.636415958E0,2.326631248E-1
2.007546048E0,4.087449014E-1,-2.734154463E0,2.314413935E-1
2.009957037E0,3.690386713E-1,-2.823340654E0,2.302196622E-1
2.012367975E0,3.268890083E-1,-2.903974771E0,2.289979309E-1
2.014778964E0,2.865719497E-1,-2.976056814E0,2.271653414E-1
2.017189902E0,2.468657345E-1,-3.038975954E0,2.259436101E-1
2.019600891E0,2.053269297E-1,-3.093953848E0,2.247218788E-1
2.022011881E0,1.637881249E-1,-3.136714220E0,2.235001475E-1
2.024422871E0,1.228601784E-1,-3.166646719E0,2.204458266E-1
2.026833808E0,8.193223923E-2,-3.186805248E0,2.198349684E-1
2.029244798E0,4.222602770E-2,-3.191692114E0,2.180023640E-1
2.031655787E0,6.872228696E-4,-3.186194420E0,2.161697745E-1
2.034066725E0,-3.779725730E-2,-3.164813995E0,2.131154537E-1
2.036477714E0,-7.750347257E-2,-3.129383802E0,2.125045806E-1
2.038888652E0,-1.172096804E-1,-3.079293013E0,2.100611329E-1
2.041299641E0,-1.544724256E-1,-3.016373873E0,2.082285285E-1
2.043710631E0,-1.911243200E-1,-2.938183308E0,2.070067972E-1
2.046121621E0,-2.259436101E-1,-2.845942736E0,2.045633495E-1
2.048532558E0,-2.589302957E-1,-2.739652157E0,2.033416182E-1
2.050943548E0,-2.937496006E-1,-2.621755362E0,2.008981556E-1
2.053354537E0,-3.242928386E-1,-2.492251873E0,1.966221035E-1
2.055765475E0,-3.542252183E-1,-2.351142168E0,1.947895139E-1
2.058176464E0,-3.823249936E-1,-2.201480389E0,1.929569095E-1
2.060587454E0,-4.067595899E-1,-2.044487953E0,1.892917305E-1
2.062998391E0,-4.299724400E-1,-1.881387115E0,1.862373948E-1
2.065409381E0,-4.531853199E-1,-1.712788463E0,1.837939471E-1
2.067820371E0,-4.727329910E-1,-1.541135430E0,1.807396114E-1
2.070231308E0,-4.904480577E-1,-1.369482517E0,1.789070219E-1
2.072642298E0,-5.063305497E-1,-1.195386052E0,1.746309698E-1
2.075053287E0,-5.209913254E-1,-1.023122191E0,1.746309698E-1
2.077464225E0,-5.350412130E-1,-8.545234799E-1,1.715766490E-1
2.079875214E0,-5.448150039E-1,-6.853139400E-1,1.666897237E-1
2.082286204E0,-5.539780259E-1,-5.203804374E-1,1.648571342E-1
2.084697141E0,-5.619192123E-1,-3.609447181E-1,1.611919403E-1
2.087108131E0,-5.692496300E-1,-2.027307451E-1,1.581376195E-1
2.089519121E0,-5.747473836E-1,-4.940368980E-2,1.550832987E-1
2.091930058E0,-5.790234804E-1,9.842558950E-2,1.520289779E-1
2.094341048E0,-5.826886296E-1,2.419788092E-1,1.501963735E-1
2.096752037E0,-5.839103460E-1,3.812559843E-1,1.459203213E-1
2.099162975E0,-5.851321220E-1,5.174788237E-1,1.440877318E-1
2.101573964E0,-5.863538384E-1,6.475930214E-1,1.410334110E-1
2.103984902E0,-5.857429504E-1,7.740420103E-1,1.373682171E-1
2.106395891E0,-5.851321220E-1,8.968258500E-1,1.343138963E-1
2.108806881E0,-5.820778012E-1,1.015333652E0,1.312595755E-1
2.111217818E0,-5.802451968E-1,1.130176187E0,1.288161129E-1
2.113628808E0,-5.765799880E-1,1.240131855E0,1.245400533E-1
2.116039798E0,-5.735256672E-1,1.347644091E0,1.214857325E-1
2.118450787E0,-5.680279136E-1,1.450880170E0,1.184314117E-1
2.120861725E0,-5.625301003E-1,1.549229383E0,1.147662178E-1
2.123272714E0,-5.551997423E-1,1.645135164E0,1.129336283E-1
2.125683652E0,-5.478693247E-1,1.737375736E0,1.098793000E-1
2.128094641E0,-5.399280787E-1,1.826562047E0,1.062141135E-1
2.130505631E0,-5.295433998E-1,1.910861373E0,1.037706509E-1
2.132916621E0,-5.203804374E-1,1.990884662E0,1.013271958E-1
2.135327558E0,-5.087739825E-1,2.066631794E0,9.949459881E-2
2.137738548E0,-4.977784455E-1,2.138103008E0,9.705114365E-2
2.140149537E0,-4.849502742E-1,2.204076529E0,9.338594973E-2
2.142560475E0,-4.715112448E-1,2.263941288E0,9.155336022E-2
2.144971464E0,-4.562396407E-1,2.317086458E0,8.788817376E-2
2.147382402E0,-4.409680068E-1,2.362290382E0,8.605557680E-2
2.149793391E0,-4.232529402E-1,2.401385784E0,8.483384550E-2
2.152204381E0,-4.061487317E-1,2.431318283E0,8.300124854E-2
2.154615318E0,-3.866010606E-1,2.452087641E0,8.177952468E-2
2.157026308E0,-3.670533597E-1,2.464304924E0,8.116865903E-2
2.159437298E0,-3.462839723E-1,2.467359304E0,7.994692773E-2
2.161848235E0,-3.242928386E-1,2.460639715E0,7.994692773E-2
2.164259225E0,-3.023017049E-1,2.444146395E0,8.055779338E-2
2.166670214E0,-2.784779668E-1,2.415435791E0,7.994692773E-2
2.169081152E0,-2.558759749E-1,2.378783703E0,7.994692773E-2
2.171492141E0,-2.326631248E-1,2.329914570E0,8.055779338E-2
2.173903131E0,-2.076176703E-1,2.271882534E0,8.300124854E-2
2.176314121E0,-1.831830740E-1,2.202854872E0,8.300124854E-2
2.178725058E0,-1.581376195E-1,2.128329277E0,8.483384550E-2
2.181136048E0,-1.355356276E-1,2.040975571E0,8.727730811E-2
2.183546985E0,-1.098793000E-1,1.948124170E0,8.972076327E-2
2.185957975E0,-8.544471115E-2,1.848553181E0,9.155336022E-2
2.188368964E0,-6.223184988E-2,1.742262721E0,9.399681538E-2
2.190779902E0,-3.962985426E-2,1.631696224E0,9.644027799E-2
2.193190891E0,-1.580612548E-2,1.516242743E0,1.001054645E-1
2.195601881E0,5.574141163E-3,1.398345828E0,1.031597927E-1
2.198012818E0,2.756527252E-2,1.277394652E0,1.062141135E-1
2.200423808E0,4.833467677E-2,1.155221701E0,1.092684343E-1
2.202834798E0,6.788235158E-2,1.031216145E0,1.135444939E-1
2.205245735E0,8.804088831E-2,9.078214169E-1,1.165988147E-1
2.207656725E0,1.069776937E-1,7.838158607E-1,1.190422773E-1
2.210067714E0,1.240819097E-1,6.622537971E-1,1.233183295E-1
2.212478652E0,1.405752599E-1,5.388590693E-1,1.257617921E-1
2.214889641E0,1.552360058E-1,4.166861475E-1,1.294269711E-1
2.217300631E0,1.705076247E-1,2.969566286E-1,1.330921650E-1
2.219711568E0,1.863901168E-1,1.790597439E-1,1.349247545E-1
2.222122558E0,2.004400045E-1,6.238456443E-2,1.373682171E-1
2.224533548E0,2.144898921E-1,-5.306887627E-2,1.410334110E-1
2.226944485E0,2.267071903E-1,-1.673005968E-1,1.428660005E-1
2.229355475E0,2.389244884E-1,-2.784779668E-1,1.459203213E-1
2.231766464E0,2.505309284E-1,-3.896553814E-1,1.477529258E-1
2.234177402E0,2.603047490E-1,-4.990001619E-1,1.501963735E-1
2.236588391E0,2.719111741E-1,-6.065123677E-1,1.526398361E-1
2.238999381E0,2.804632783E-1,-7.128028274E-1,1.556941569E-1
2.241410318E0,2.890154123E-1,-8.172607422E-1,1.581376195E-1
2.243821308E0,2.981783748E-1,-9.198859930E-1,1.599702090E-1
2.246232298E0,3.055087626E-1,-1.021289587E0,1.605810821E-1
2.248643287E0,3.140608668E-1,-1.121471405E0,1.624136716E-1
2.251054225E0,3.207803667E-1,-1.219820619E0,1.648571342E-1
2.253465214E0,3.256672919E-1,-1.316337228E0,1.660788655E-1
2.255876152E0,3.311650753E-1,-1.410410404E0,1.660788655E-1
2.258287141E0,3.360520005E-1,-1.501429319E0,1.679114550E-1
2.260698131E0,3.397171795E-1,-1.590615511E0,1.697440445E-1
2.263109068E0,3.421606421E-1,-1.675525784E0,1.703549176E-1
2.265520058E0,3.439932168E-1,-1.755549073E0,1.703549176E-1
2.267931048E0,3.433823586E-1,-1.830685377E0,1.715766490E-1
2.270342037E0,3.427715003E-1,-1.900323987E0,1.709657758E-1
2.272752975E0,3.421606421E-1,-1.963243008E0,1.715766490E-1
2.275163964E0,3.391063213E-1,-2.023718596E0,1.721875072E-1
2.277574902E0,3.342193961E-1,-2.074420452E0,1.727983803E-1
2.279985891E0,3.287216127E-1,-2.115348339E0,1.721875072E-1
2.282396881E0,3.213912249E-1,-2.149556875E0,1.715766490E-1
2.284807871E0,3.122282624E-1,-2.175213099E0,1.715766490E-1
2.287218808E0,3.018435538E-1,-2.192317247E0,1.703549176E-1
2.289629798E0,2.902371287E-1,-2.198426008E0,1.673005968E-1
2.292040787E0,2.767980993E-1,-2.192317247E0,1.666897237E-1
2.294451725E0,2.615264952E-1,-2.178878307E0,1.648571342E-1
2.296862714E0,2.450331300E-1,-2.154443741E0,1.618028134E-1
2.299273652E0,2.279289216E-1,-2.119013548E0,1.611919403E-1
2.301684641E0,2.071595192E-1,-2.075642109E0,1.593593508E-1
2.304095631E0,1.851683855E-1,-2.021275282E0,1.556941569E-1
2.306506621E0,1.625663936E-1,-1.956523538E0,1.538615674E-1
2.308917558E0,1.387426704E-1,-1.883830667E0,1.514181048E-1
2.311328548E0,1.124754772E-1,-1.803807378E0,1.489746422E-1
2.313739537E0,8.498656005E-2,-1.715231895E0,1.453094631E-1
2.316150475E0,5.749764666E-2,-1.620547891E0,1.434768587E-1
2.318561464E0,2.878700197E-2,-1.517311811E0,1.404225379E-1
2.320972402E0,-1.145371469E-3,-1.409188747E0,1.367573589E-1
2.323383391E0,-3.229947388E-2,-1.296789527E0,1.337030232E-1
2.325794381E0,-6.467530876E-2,-1.180725217E0,1.312595755E-1
2.328205371E0,-9.705114365E-2,-1.061606646E0,1.275943816E-1
2.330616308E0,-1.312595755E-1,-9.406554103E-1,1.245400533E-1
2.333027298E0,-1.642462611E-1,-8.154281378E-1,1.214857325E-1
2.335438287E0,-1.996764243E-1,-6.895899773E-1,1.184314117E-1
2.337849225E0,-2.351065874E-1,-5.631409883E-1,1.159879491E-1
2.340260214E0,-2.693150043E-1,-4.354702234E-1,1.129336283E-1
2.342671152E0,-3.053560257E-1,-3.071886301E-1,1.080467105E-1
2.345082141E0,-3.432296515E-1,-1.782961637E-1,1.056032479E-1
2.347493131E0,-3.817141354E-1,-5.184714869E-2,1.013271958E-1
2.349904121E0,-4.208094776E-1,7.643445581E-2,9.827287495E-2
2.352315058E0,-4.592939615E-1,2.016617358E-1,9.460768104E-2
2.354726048E0,-4.996110201E-1,3.287216127E-1,9.033162892E-2
2.357137037E0,-5.411498547E-1,4.539488852E-1,8.666644245E-2
2.359547975E0,-5.832995176E-1,5.785652995E-1,8.300124854E-2
2.361958964E0,-6.254491806E-1,7.013491392E-1,7.872519642E-2
2.364369954E0,-6.712640524E-1,8.229112029E-1,7.444914430E-2
2.366780891E0,-7.164680362E-1,9.426407218E-1,7.017309219E-2
2.369191881E0,-7.622829080E-1,1.062981129E0,6.467530876E-2
2.371602871E0,-8.111520410E-1,1.179656267E0,5.917752534E-2
2.374013808E0,-8.606321216E-1,1.293887973E0,5.490147322E-2
2.376424798E0,-9.125556350E-1,1.405065298E0,4.879282415E-2
2.378835735E0,-9.650899768E-1,1.513799310E0,4.329504073E-2
2.381246725E0,-1.020067811E0,1.620700598E0,3.840812296E-2
2.383657714E0,-1.078099966E0,1.720271587E0,3.168861195E-2
2.386068704E0,-1.134299517E0,1.816788197E0,2.435823344E-2
2.388479641E0,-1.194164276E0,1.907807112E0,1.824958436E-2
2.390890631E0,-1.255250812E0,1.990884662E0,1.153007243E-2
2.393301568E0,-1.316337228E0,2.068464518E0,4.810560029E-3
2.395712558E0,-1.381699800E0,2.138713837E0,-3.130682046E-3
2.398123548E0,-1.447062254E0,2.201022148E0,-1.107192412E-2
2.400534537E0,-1.511813998E0,2.256000042E0,-1.901316643E-2
2.402945475E0,-1.580841660E0,2.296927929E0,-2.634354308E-2
2.405356464E0,-1.648647666E0,2.331136465E0,-3.489565104E-2
2.407767454E0,-1.716453671E0,2.354959965E0,-4.344775900E-2
2.410178391E0,-1.785481334E0,2.370231628E0,-5.322159454E-2
2.412589381E0,-1.854509115E0,2.372675180E0,-6.055197120E-2
2.415000371E0,-1.924147725E0,2.364123106E0,-6.910407543E-2
2.417411308E0,-1.995007992E0,2.344575405E0,-7.765618712E-2
2.419822298E0,-2.064646482E0,2.313421249E0,-8.681915700E-2
2.422233287E0,-2.133063555E0,2.274325848E0,-9.537126124E-2
2.424644225E0,-2.201480389E0,2.223624229E0,-1.039233729E-1
2.427055214E0,-2.268064499E0,2.161926746E0,-1.124754772E-1
2.429466204E0,-2.336481333E0,2.091066599E0,-1.198058575E-1
2.431877141E0,-2.402454853E0,2.010432243E0,-1.289688200E-1
2.434288131E0,-2.467817307E0,1.921856999E0,-1.356883347E-1
2.436699121E0,-2.529514790E0,1.824118614E0,-1.417969912E-1
2.439110058E0,-2.593044519E0,1.720882416E0,-1.479056329E-1
2.441521048E0,-2.653520346E0,1.610315919E0,-1.552360058E-1
2.443932037E0,-2.712163210E0,1.494251609E0,-1.619555205E-1
2.446342975E0,-2.770806313E0,1.372689486E0,-1.656207144E-1
2.448753964E0,-2.826395035E0,1.246240497E0,-1.705076247E-1
2.451164954E0,-2.878929377E0,1.118569732E0,-1.747836918E-1
2.453575891E0,-2.930852890E0,9.866229892E-1,-1.790597439E-1
2.455986881E0,-2.982165575E0,8.540652990E-1,-1.808923334E-1
2.458397871E0,-3.031034708E0,7.178424597E-1,-1.845575273E-1
2.460808808E0,-3.078071356E0,5.803979039E-1,-1.857792437E-1
2.463219798E0,-3.123886108E0,4.417316020E-1,-1.870009750E-1
2.465630787E0,-3.170311928E0,3.036761582E-1,-1.876118481E-1
2.468041725E0,-3.210628986E0,1.680641770E-1,-1.863901168E-1
2.470452714E0,-3.250946045E0,3.123046272E-2,-1.851683855E-1
2.472863704E0,-3.291873932E0,-1.062141135E-1,-1.845575273E-1
2.475274641E0,-3.330358505E0,-2.406043708E-1,-1.808923334E-1
2.477685631E0,-3.366399527E0,-3.731620312E-1,-1.772271395E-1
2.480096621E0,-3.401829481E0,-5.044979453E-1,-1.741728187E-1
2.482507558E0,-3.436038017E0,-6.340012550E-1,-1.698967665E-1
2.484918548E0,-3.469635487E0,-7.592285872E-1,-1.650098413E-1
2.487329537E0,-3.498957157E0,-8.801797628E-1,-1.582903415E-1
2.489740475E0,-3.530111313E0,-9.986875653E-1,-1.515708268E-1
2.492151464E0,-3.560654402E0,-1.114140987E0,-1.454621702E-1
2.494562454E0,-3.585699797E0,-1.222264051E0,-1.362992078E-1
2.496973391E0,-3.612577915E0,-1.326111078E0,-1.283579618E-1
2.499384381E0,-3.637012482E0,-1.423849463E0,-1.191949919E-1
2.501795371E0,-3.658392906E0,-1.515479207E0,-1.112537459E-1
2.504206308E0,-3.679162264E0,-1.600389361E0,-1.002581790E-1
2.506617298E0,-3.697488070E0,-1.675525784E0,-9.109520912E-2
2.509028287E0,-3.715203285E0,-1.743331671E0,-8.132137358E-2
2.511439225E0,-3.731085777E0,-1.803196430E0,-6.971494108E-2
2.513850214E0,-3.741470337E0,-1.851454735E0,-5.994110554E-2
2.516261204E0,-3.753687620E0,-1.888717532E0,-4.833467677E-2
2.518672141E0,-3.763461590E0,-1.916817307E0,-3.733910993E-2
2.521083131E0,-3.768959284E0,-1.935143232E0,-2.634354308E-2
2.523494121E0,-3.772624493E0,-1.941251874E0,-1.412624773E-2
2.525905058E0,-3.773235321E0,-1.935754180E0,-2.519817324E-3
2.528316048E0,-3.772624493E0,-1.918039083E0,8.475748822E-3
2.530727037E0,-3.770181179E0,-1.889939308E0,1.824958436E-2
2.533137975E0,-3.765294075E0,-1.850843906E0,2.741255611E-2
2.535548964E0,-3.756742001E0,-1.801363826E0,3.657552972E-2
2.537959954E0,-3.746357441E0,-1.739666581E0,4.696023092E-2
2.540370891E0,-3.733529091E0,-1.666362762E0,5.612320080E-2
2.542781881E0,-3.718257666E0,-1.585728645E0,6.284271181E-2
2.545192871E0,-3.699931622E0,-1.494098902E0,7.017309219E-2
2.547603808E0,-3.682216644E0,-1.396360517E0,7.628174126E-2
2.550014798E0,-3.662057877E0,-1.291291833E0,8.239039034E-2
2.552425787E0,-3.637623310E0,-1.176449180E0,8.972076327E-2
2.554836725E0,-3.611967087E0,-1.055498004E0,9.399681538E-2
2.557247714E0,-3.585088968E0,-9.314924479E-1,9.644027799E-2
2.559658704E0,-3.555767536E0,-8.019890785E-1,9.949459881E-2
2.562069641E0,-3.524613380E0,-6.688205600E-1,1.019380614E-1
2.564480631E0,-3.493459225E0,-5.332086086E-1,1.025489271E-1
2.566891621E0,-3.459861755E0,-3.945422769E-1,1.043815166E-1
2.569302558E0,-3.426264286E0,-2.564868629E-1,1.031597927E-1
2.571713548E0,-3.389612198E0,-1.184314117E-1,1.037706509E-1
2.574124537E0,-3.353571177E0,2.084576152E-2,1.013271958E-1
2.576535475E0,-3.315086842E0,1.595120728E-1,1.001054645E-1
2.578946464E0,-3.277824163E0,2.969566286E-1,9.644027799E-2
2.581357454E0,-3.236896038E0,4.319577515E-1,9.399681538E-2
2.583768391E0,-3.195968151E0,5.639045238E-1,9.155336022E-2
2.586179381E0,-3.153207541E0,6.946296096E-1,8.666644245E-2
2.588590371E0,-3.111057997E0,8.223003745E-1,8.177952468E-2
2.591001308E0,-3.065854073E0,9.469167590E-1,7.750347257E-2
2.593412298E0,-3.022482634E0,1.064202785E0,7.322741300E-2
2.595823287E0,-2.976056814E0,1.180877924E0,6.528617442E-2
2.598234225E0,-2.928409338E0,1.291444540E0,5.917752534E-2
2.600645214E0,-2.881983757E0,1.396513224E0,5.245801434E-2
2.603056204E0,-2.832503557E0,1.498527646E0,4.634936526E-2
2.605467141E0,-2.780580044E0,1.593822598E0,4.024071619E-2
2.607878131E0,-2.728656530E0,1.684230566E0,3.291033953E-2
2.610289121E0,-2.677954912E0,1.766697288E0,2.557996288E-2
2.612700058E0,-2.622977018E0,1.842444539E0,1.886045001E-2
2.615111048E0,-2.566777468E0,1.912083149E0,1.214093715E-2
2.617522037E0,-2.511188745E0,1.973780513E0,4.810560029E-3
2.619932975E0,-2.452545643E0,2.026925802E0,-2.519817324E-3
2.622343964E0,-2.395124435E0,2.072129726E0,-9.239329956E-3
2.624754954E0,-2.335259676E0,2.107559919E0,-1.473711245E-2
2.627165891E0,-2.272340536E0,2.135659695E0,-2.145662531E-2
2.629576881E0,-2.211254120E0,2.152763844E0,-2.695440874E-2
2.631987871E0,-2.149556875E0,2.158872604E0,-3.184132650E-2
2.634398808E0,-2.086026907E0,2.158261538E0,-3.733910993E-2
2.636809798E0,-2.021275282E0,2.146655083E0,-4.100430012E-2
2.639220787E0,-1.958356142E0,2.124664068E0,-4.405862093E-2
2.641631725E0,-1.892993569E0,2.089844704E0,-4.833467677E-2
2.644042714E0,-1.828241944E0,2.048916817E0,-5.077813566E-2
2.646453704E0,-1.765322804E0,1.996993303E0,-5.383246019E-2
2.648864641E0,-1.701182008E0,1.935295939E0,-5.566505343E-2
2.651275631E0,-1.636430383E0,1.866879106E0,-5.810851231E-2
2.653686621E0,-1.574122190E0,1.789299250E0,-5.688678101E-2
2.656097610E0,-1.512424827E0,1.702556491E0,-5.810851231E-2
2.658508548E0,-1.452560067E0,1.608483315E0,-5.810851231E-2
2.660919537E0,-1.391473651E0,1.511966705E0,-5.810851231E-2
2.663330475E0,-1.333441496E0,1.406287074E0,-5.566505343E-2
2.665741464E0,-1.274798393E0,1.297553182E0,-5.505418777E-2
2.668152454E0,-1.219820619E0,1.185154080E0,-5.444332212E-2
2.670563391E0,-1.166064501E0,1.069700599E0,-5.138900131E-2
2.672974381E0,-1.111086726E0,9.511927962E-1,-5.016727000E-2
2.675385371E0,-1.061606646E0,8.296307325E-1,-4.589121789E-2
2.677796308E0,-1.013348341E0,7.080686092E-1,-4.283689335E-2
2.680207298E0,-9.657008648E-1,5.865065455E-1,-3.978256881E-2
2.682618287E0,-9.168316722E-1,4.661661983E-1,-3.672824427E-2
2.685029225E0,-8.746820092E-1,3.452149630E-1,-3.428478539E-2
2.687440214E0,-8.319214582E-1,2.248746008E-1,-3.184132650E-2
2.689851204E0,-7.909935117E-1,1.051450968E-1,-2.756527252E-2
2.692262193E0,-7.506764531E-1,-1.153007243E-2,-2.451094985E-2
2.694673131E0,-7.115811110E-1,-1.251509190E-1,-2.023489587E-2
2.697084121E0,-6.767618060E-1,-2.387717664E-1,-1.718057133E-2
2.699495110E0,-6.419425011E-1,-3.493382931E-1,-1.351538301E-2
2.701906048E0,-6.071232557E-1,-4.568504989E-1,-8.628465235E-3
2.704317037E0,-5.753582716E-1,-5.594757795E-1,-4.352411721E-3
2.706728027E0,-5.442041755E-1,-6.602684855E-1,-1.298087649E-3
2.709138964E0,-5.148826241E-1,-7.573959827E-1,1.756236190E-3
2.711549954E0,-4.880045950E-1,-8.508582711E-1,4.199695308E-3
2.713960943E0,-4.592939615E-1,-9.394336939E-1,7.254019380E-3
2.716371881E0,-4.336376488E-1,-1.023733020E0,1.091920771E-2
2.718782871E0,-4.079813063E-1,-1.102534533E0,1.336266659E-2
2.721193808E0,-3.841575980E-1,-1.178281784E0,1.763872057E-2
2.723604798E0,-3.621664643E-1,-1.249752998E0,2.008217946E-2
2.726015787E0,-3.407861888E-1,-1.312672019E0,2.191477455E-2
2.728426725E0,-3.212385178E-1,-1.368871570E0,2.496909723E-2
2.730837714E0,-3.010799885E-1,-1.418962479E0,2.680169232E-2
2.733248704E0,-2.833648920E-1,-1.464166522E0,2.924515121E-2
2.735659693E0,-2.687041461E-1,-1.502040148E0,3.107774630E-2
2.738070631E0,-2.534325123E-1,-1.532583356E0,3.229947388E-2
2.740481621E0,-2.387717664E-1,-1.555185318E0,3.352120519E-2
2.742892558E0,-2.277761996E-1,-1.570456982E0,3.474293277E-2
2.745303548E0,-2.173915058E-1,-1.575954795E0,3.596466407E-2
2.747714537E0,-2.082285285E-1,-1.577176452E0,3.779725730E-2
2.750125527E0,-1.996764243E-1,-1.568013549E0,3.840812296E-2
2.752536464E0,-1.941786408E-1,-1.551520228E0,3.840812296E-2
2.754947454E0,-1.886808574E-1,-1.524642110E0,3.840812296E-2
2.757358443E0,-1.856265366E-1,-1.492266297E0,3.718639165E-2
2.759769381E0,-1.831830740E-1,-1.452560067E0,3.779725730E-2
2.762180371E0,-1.831830740E-1,-1.404912591E0,3.657552972E-2
2.764591360E0,-1.850156635E-1,-1.349323988E0,3.657552972E-2
2.767002298E0,-1.844048053E-1,-1.287626624E0,3.596466407E-2
2.769413287E0,-1.892917305E-1,-1.221653223E0,3.535379842E-2
2.771824277E0,-1.935677826E-1,-1.149571180E0,3.229947388E-2
2.774235214E0,-2.002872825E-1,-1.073213100E0,3.107774630E-2
2.776646204E0,-2.076176703E-1,-9.919680357E-1,3.046688065E-2
2.779057193E0,-2.173915058E-1,-9.076687098E-1,2.863428742E-2
2.781468131E0,-2.259436101E-1,-8.184824586E-1,2.741255611E-2
2.783879121E0,-2.357174456E-1,-7.280744314E-1,2.496909723E-2
2.786290110E0,-2.461021543E-1,-6.358338594E-1,2.435823344E-2
2.788701048E0,-2.583194375E-1,-5.417606831E-1,2.191477455E-2
2.791112037E0,-2.711476088E-1,-4.458549321E-1,2.008217946E-2
2.793523027E0,-2.839757502E-1,-3.499491513E-1,1.763872057E-2
2.795933964E0,-2.974147797E-1,-2.540434003E-1,1.458439697E-2
2.798344954E0,-3.139081299E-1,-1.587484777E-1,1.336266659E-2
2.800755943E0,-3.285689056E-1,-6.284271181E-2,1.153007243E-2
2.803166881E0,-3.462839723E-1,3.306305781E-2,8.475748822E-3
2.805577871E0,-3.609447181E-1,1.259144992E-1,6.643154658E-3
2.807988860E0,-3.774380684E-1,2.193768173E-1,3.588830587E-3
2.810399798E0,-3.951531649E-1,3.116174042E-1,1.756236190E-3
2.812810787E0,-4.128682315E-1,4.008036554E-1,5.345066893E-4
2.815221777E0,-4.299724400E-1,4.887681901E-1,-2.519817324E-3
2.817632714E0,-4.482983947E-1,5.742892623E-1,-6.185005885E-3
2.820043704E0,-4.678460658E-1,6.591994762E-1,-9.850194678E-3
2.822454693E0,-4.861720204E-1,7.410553098E-1,-1.107192412E-2
2.824865631E0,-5.057196617E-1,8.198568821E-1,-1.351538301E-2
2.827276621E0,-5.258781910E-1,8.962149620E-1,-1.656970754E-2
2.829687610E0,-5.460367799E-1,9.695187807E-1,-1.901316643E-2
2.832098548E0,-5.674170256E-1,1.040989995E0,-2.084576152E-2
2.834509537E0,-5.881864429E-1,1.108795881E0,-2.512181364E-2
2.836920527E0,-6.083449721E-1,1.173547626E0,-2.634354308E-2
2.839331464E0,-6.291143894E-1,1.234634042E0,-3.123046272E-2
2.841742454E0,-6.523272395E-1,1.292666197E0,-3.306305781E-2
2.844153443E0,-6.724857688E-1,1.345811486E0,-3.611737862E-2
2.846564381E0,-6.950877905E-1,1.393458962E0,-4.039343446E-2
2.848975371E0,-7.176897526E-1,1.439273834E0,-4.344775900E-2
2.851386360E0,-7.402917743E-1,1.479590893E0,-4.528035223E-2
2.853797298E0,-7.628937364E-1,1.515020967E0,-4.833467677E-2
2.856208287E0,-7.867174745E-1,1.544953346E0,-5.016727000E-2
2.858619277E0,-8.099303246E-1,1.569998860E0,-5.383246019E-2
2.861030214E0,-8.313106298E-1,1.588324785E0,-5.810851231E-2
2.863441204E0,-8.551343083E-1,1.601763844E0,-5.933023989E-2
2.865852193E0,-8.783472180E-1,1.607872486E0,-6.299543381E-2
2.868263131E0,-8.991165757E-1,1.610315919E0,-6.666062027E-2
2.870674121E0,-9.223294854E-1,1.606039882E0,-7.032580674E-2
2.873085110E0,-9.430988431E-1,1.596266031E0,-7.154753804E-2
2.875496048E0,-9.638682604E-1,1.579161763E0,-7.338013500E-2
2.877907037E0,-9.840267897E-1,1.557781577E0,-7.460185885E-2
2.880318027E0,-1.005407095E0,1.529070854E0,-7.948877662E-2
2.882728964E0,-1.025565624E0,1.494862437E0,-8.071050793E-2
2.885139954E0,-1.044502378E0,1.456377983E0,-8.193223923E-2
2.887550943E0,-1.061606646E0,1.411173940E0,-8.437569439E-2
2.889961881E0,-1.078710794E0,1.362915635E0,-8.620829135E-2
2.892372871E0,-1.096425891E0,1.307327032E0,-8.804088831E-2
2.894783860E0,-1.110475779E0,1.249905705E0,-9.048434347E-2
2.897194798E0,-1.125136614E0,1.188819170E0,-9.170607477E-2
2.899605787E0,-1.139186502E0,1.122845769E0,-9.109520912E-2
2.902016777E0,-1.152014613E0,1.053207278E0,-9.292780608E-2
2.904427714E0,-1.163010240E0,9.817360640E-1,-9.353867173E-2
2.906838704E0,-1.174005747E0,9.078214169E-1,-9.476039559E-2
2.909249693E0,-1.184390426E0,8.320741653E-1,-9.353867173E-2
2.911660683E0,-1.191110015E0,7.544943690E-1,-9.353867173E-2
2.914071621E0,-1.200272918E0,6.738601923E-1,-9.414953738E-2
2.916482610E0,-1.206381559E0,5.926151872E-1,-9.414953738E-2
2.918893548E0,-1.213101149E0,5.113701820E-1,-9.353867173E-2
2.921304537E0,-1.216766238E0,4.289034307E-1,-9.292780608E-2
2.923715527E0,-1.221653223E0,3.439932168E-1,-9.231694043E-2
2.926126464E0,-1.224096656E0,2.584721744E-1,-9.048434347E-2
2.928537454E0,-1.226540089E0,1.741728187E-1,-8.987347782E-2
2.930948443E0,-1.227151036E0,9.109520912E-2,-8.865175396E-2
2.933359381E0,-1.226540089E0,6.185005885E-3,-8.743002266E-2
2.935770371E0,-1.224707484E0,-7.933606207E-2,-8.498656005E-2
2.938181360E0,-1.223485827E0,-1.642462611E-1,-8.254310489E-2
2.940592298E0,-1.219209790E0,-2.467130125E-1,-8.071050793E-2
2.943003287E0,-1.214933634E0,-3.291797638E-1,-7.765618712E-2
2.945414277E0,-1.208214164E0,-4.128682315E-1,-7.582359016E-2
2.947825266E0,-1.202716351E0,-4.941132367E-1,-7.276926935E-2
2.950236204E0,-1.194164276E0,-5.747473836E-1,-7.032580674E-2
2.952647193E0,-1.185612202E0,-6.535489559E-1,-6.727148592E-2
2.955058183E0,-1.175227523E0,-7.292962074E-1,-6.421715766E-2
2.957469121E0,-1.163010240E0,-8.044325709E-1,-6.116283685E-2
2.959880110E0,-1.150182009E0,-8.777363300E-1,-5.688678101E-2
2.962291100E0,-1.136742949E0,-9.479857683E-1,-5.383246019E-2
2.964702037E0,-1.120249629E0,-1.016402602E0,-5.016727000E-2
2.967113027E0,-1.103145480E0,-1.081765175E0,-4.650207981E-2
2.969524016E0,-1.085430384E0,-1.144073367E0,-4.222602770E-2
2.971934954E0,-1.064050078E0,-1.203938127E0,-3.856083751E-2
2.974345943E0,-1.043280721E0,-1.258915901E0,-3.611737862E-2
2.976756933E0,-1.020067811E0,-1.307785153E0,-3.306305781E-2
2.979167871E0,-9.938006401E-1,-1.354821682E0,-2.817613818E-2
2.981578860E0,-9.669225812E-1,-1.397582293E0,-2.512181364E-2
2.983989850E0,-9.388228059E-1,-1.434234142E0,-2.145662531E-2
2.986400787E0,-9.113339186E-1,-1.465999126E0,-1.718057133E-2
2.988811777E0,-8.801797628E-1,-1.494709730E0,-1.351538301E-2
2.991222766E0,-8.484148383E-1,-1.517311811E0,-9.850194678E-3
2.993633704E0,-8.154281378E-1,-1.533805132E0,-6.185005885E-3
2.996044693E0,-7.781654000E-1,-1.543578982E0,-3.130682046E-3
2.998455683E0,-7.421243787E-1,-1.549076676E0,-6.872228696E-4
3.000866621E0,-7.042507529E-1,-1.548465848E0,2.977965865E-3
3.003277610E0,-6.657662392E-1,-1.542968035E0,4.810560029E-3
3.005688600E0,-6.248382926E-1,-1.530750751E0,7.254019380E-3
3.008099537E0,-5.832995176E-1,-1.511813998E0,9.697478265E-3
3.010510527E0,-5.405389667E-1,-1.487990260E0,1.091920771E-2
3.012921516E0,-4.971675575E-1,-1.461723089E0,1.336266659E-2
3.015332454E0,-4.525744319E-1,-1.428736329E0,1.458439697E-2
3.017743443E0,-4.073704481E-1,-1.390862703E0,1.641699113E-2
3.020154433E0,-3.597230017E-1,-1.346269608E0,1.641699113E-2
3.022565371E0,-3.132972717E-1,-1.298622131E0,1.763872057E-2
3.024976360E0,-2.650389671E-1,-1.247309566E0,1.886045001E-2
3.027387350E0,-2.167806327E-1,-1.191110015E0,2.008217946E-2
3.029798287E0,-1.679114550E-1,-1.131856084E0,2.008217946E-2
3.032209277E0,-1.178205460E-1,-1.068326116E0,2.008217946E-2
3.034620266E0,-6.650790572E-2,-1.002352715E0,2.069304511E-2
3.037031204E0,-1.397353224E-2,-9.333250523E-1,2.252563834E-2
3.039442193E0,3.611737862E-2,-8.618538380E-1,2.069304511E-2
3.041853183E0,8.926261961E-2,-7.873283625E-1,2.069304511E-2
3.044264121E0,1.411861181E-1,-7.109702229E-1,2.130390890E-2
3.046675110E0,1.955530941E-1,-6.333904266E-1,2.130390890E-2
3.049086100E0,2.511417866E-1,-5.515345335E-1,2.069304511E-2
3.051497037E0,3.036761582E-1,-4.709003866E-1,1.824958436E-2
3.053908027E0,3.598757088E-1,-3.884336352E-1,1.886045001E-2
3.056319016E0,4.160752594E-1,-3.041343093E-1,1.824958436E-2
3.058729954E0,4.741074145E-1,-2.192240953E-1,1.886045001E-2
3.061140943E0,5.303069949E-1,-1.349247545E-1,1.824958436E-2
3.063551933E0,5.895608664E-1,-4.879282415E-2,1.763872057E-2
3.065962871E0,6.469821334E-1,3.672824427E-2,1.886045001E-2
3.068373860E0,7.080686092E-1,1.210275814E-1,1.763872057E-2
3.070784850E0,7.685442567E-1,2.071595192E-1,1.763872057E-2
3.073195787E0,8.296307325E-1,2.920697331E-1,1.824958436E-2
3.075606777E0,8.913280964E-1,3.745364547E-1,1.824958436E-2
3.078017766E0,9.560797215E-1,4.576140642E-1,1.947131567E-2
3.080428704E0,1.018998861E0,5.376373529E-1,1.947131567E-2
3.082839693E0,1.082528710E0,6.158280373E-1,2.069304511E-2
3.085250683E0,1.149113059E0,6.927970052E-1,2.191477455E-2
3.087661621E0,1.213864684E0,7.654899359E-1,2.374736778E-2
3.090072610E0,1.280448914E0,8.351284862E-1,2.619082667E-2
3.092483600E0,1.345811486E0,9.011018872E-1,2.863428742E-2
3.094894537E0,1.413006544E0,9.646318555E-1,3.046688065E-2
3.097305527E0,1.482034326E0,1.023885727E0,3.291033953E-2
3.099716516E0,1.549840331E0,1.078252673E0,3.535379842E-2
3.102127454E0,1.617035389E0,1.128343582E0,3.901898861E-2
3.104538443E0,1.685452342E0,1.172325850E0,4.390590638E-2
3.106949433E0,1.755090833E0,1.212032080E0,4.818195850E-2
3.109360371E0,1.822896838E0,1.245018721E0,5.306887627E-2
3.111771360E0,1.889481068E0,1.272507668E0,5.551233515E-2
3.114182350E0,1.959119678E0,1.295109749E0,6.223184988E-2
3.116593287E0,2.026314735E0,1.310992122E0,6.895136088E-2
3.119004277E0,2.093509912E0,1.321376920E0,7.383827865E-2
3.121415266E0,2.159483433E0,1.324431181E0,7.872519642E-2
3.123826204E0,2.224845886E0,1.321376920E0,8.544471115E-2
3.126237193E0,2.292041063E0,1.311603069E0,9.338594973E-2
3.128648183E0,2.356792688E0,1.295109749E0,9.949459881E-2
3.131059173E0,2.419711828E0,1.273118615E0,1.068249792E-1
3.133470110E0,2.480187416E0,1.245018721E0,1.129336283E-1
3.135881100E0,2.543717384E0,1.210810304E0,1.190422773E-1
3.138292089E0,2.604192972E0,1.170493245E0,1.263726503E-1
3.140703027E0,2.662225008E0,1.123456717E0,1.343138963E-1
3.143114016E0,2.722089767E0,1.073365808E0,1.410334110E-1
3.145525006E0,2.779511213E0,1.015333652E0,1.495855153E-1
3.147935943E0,2.835710764E0,9.536362886E-1,1.563050300E-1
3.150346933E0,2.889466763E0,8.852193952E-1,1.636354029E-1
3.152757871E0,2.943833828E0,8.137482405E-1,1.703549176E-1
3.155168860E0,2.993924618E0,7.367792726E-1,1.770744324E-1
3.157579850E0,3.044626474E0,6.567559838E-1,1.831830740E-1
3.159990839E0,3.095328093E0,5.730675459E-1,1.886808574E-1
3.162401777E0,3.142364740E0,4.863247275E-1,1.947895139E-1
3.164812766E0,3.188179731E0,3.953058720E-1,2.021198869E-1
3.167223704E0,3.232161999E0,3.030653000E-1,2.063959390E-1
3.169634693E0,3.274922371E0,2.077703774E-1,2.112828493E-1
3.172045683E0,3.315850496E0,1.112537459E-1,2.143371850E-1
3.174456673E0,3.354334831E0,1.229365356E-2,2.173915058E-1
3.176867610E0,3.392819405E0,-8.605557680E-2,2.210566849E-1
3.179278600E0,3.429471254E0,-1.862373948E-1,2.235001475E-1
3.181689589E0,3.463068724E0,-2.870301008E-1,2.265544683E-1
3.184100527E0,3.494222879E0,-3.866010606E-1,2.271653414E-1
3.186511516E0,3.525377035E0,-4.873937368E-1,2.289979309E-1
3.188922506E0,3.554698467E0,-5.845212340E-1,2.302196622E-1
3.191333443E0,3.581576586E0,-6.816487312E-1,2.283870727E-1
3.193744433E0,3.606011152E0,-7.781654000E-1,2.277761996E-1
3.196155423E0,3.629224062E0,-8.697950840E-1,2.265544683E-1
3.198566360E0,3.649382591E0,-9.602030516E-1,2.241110206E-1
3.200977350E0,3.667708397E0,-1.047556758E0,2.210566849E-1
3.203388339E0,3.685423613E0,-1.128190875E0,2.173915058E-1
3.205799277E0,3.698251724E0,-1.208214164E0,2.131154537E-1
3.208210266E0,3.712301731E0,-1.282128811E0,2.082285285E-1
3.210621256E0,3.722075462E0,-1.352989078E0,2.033416182E-1
3.213032193E0,3.731238365E0,-1.415297389E0,1.972329617E-1
3.215443183E0,3.736736298E0,-1.473940372E0,1.905134469E-1
3.217854173E0,3.740401506E0,-1.526474714E0,1.837939471E-1
3.220265110E0,3.739179611E0,-1.573511362E0,1.776852906E-1
3.222676100E0,3.739179611E0,-1.613828421E0,1.697440445E-1
3.225087089E0,3.737347126E0,-1.646204233E0,1.618028134E-1
3.227498027E0,3.731238365E0,-1.671860576E0,1.532506943E-1
3.229909016E0,3.722686291E0,-1.690797329E0,1.446985900E-1
3.232320006E0,3.712301731E0,-1.703014612E0,1.349247545E-1
3.234730943E0,3.699473381E0,-1.707290649E0,1.251509190E-1
3.237141933E0,3.685423613E0,-1.701792955E0,1.153770834E-1
3.239552923E0,3.668930292E0,-1.691408157E0,1.056032479E-1
3.241963860E0,3.648771763E0,-1.673082232E0,9.644027799E-2
3.244374850E0,3.626780510E0,-1.648036838E0,8.666644245E-2
3.246785839E0,3.602956772E0,-1.614439249E0,7.628174126E-2
3.249196777E0,3.576078892E0,-1.575343966E0,6.650790572E-2
3.251607766E0,3.547368050E0,-1.528918147E0,5.795579776E-2
3.254018756E0,3.516824961E0,-1.475162029E0,4.818195850E-2
3.256429693E0,3.483227253E0,-1.416519046E0,3.779725730E-2
3.258840683E0,3.450240612E0,-1.349934816E0,2.863428742E-2
3.261251673E0,3.416032314E0,-1.277852774E0,1.947131567E-2
3.263662610E0,3.376936913E0,-1.200883746E0,1.214093715E-2
3.266073600E0,3.337230682E0,-1.120860457E0,3.588830587E-3
3.268484589E0,3.295691729E0,-1.035339475E0,-4.963276442E-3
3.270895527E0,3.254153013E0,-9.467640519E-1,-1.229365356E-2
3.273306516E0,3.211392403E0,-8.539125919E-1,-1.901316643E-2
3.275717506E0,3.165577650E0,-7.592285872E-1,-2.634354308E-2
3.278128443E0,3.118541002E0,-6.602684855E-1,-3.306305781E-2
3.280539433E0,3.070893526E0,-5.613083839E-1,-3.917170316E-2
3.282950423E0,3.022024393E0,-4.617374241E-1,-4.405862093E-2
3.285361360E0,2.973155260E0,-3.597230017E-1,-4.955640435E-2
3.287772350E0,2.922453403E0,-2.577085793E-1,-5.444332212E-2
3.290183339E0,2.870529890E0,-1.587484777E-1,-5.810851231E-2
3.292594329E0,2.818606377E0,-5.612320080E-2,-6.177370250E-2
3.295005266E0,2.765461206E0,4.222602770E-2,-6.666062027E-2
3.297416256E0,2.712316036E0,1.405752599E-1,-6.849320978E-2
3.299827193E0,2.659170628E0,2.364810258E-1,-7.032580674E-2
3.302238183E0,2.602360249E0,3.274998665E-1,-7.276926935E-2
3.304649173E0,2.546771526E0,4.172970057E-1,-7.582359016E-2
3.307060162E0,2.490571976E0,5.034289360E-1,-7.521272451E-2
3.309471100E0,2.434983253E0,5.877282619E-1,-7.826705277E-2
3.311882089E0,2.377562046E0,6.659189463E-1,-7.887791097E-2
3.314293079E0,2.320140839E0,7.398335934E-1,-7.948877662E-2
3.316704016E0,2.262108564E0,8.100830317E-1,-8.009964228E-2
3.319115006E0,2.204687357E0,8.754456043E-1,-7.948877662E-2
3.321525996E0,2.147876978E0,9.353103638E-1,-8.009964228E-2
3.323936933E0,2.089233875E0,9.884555936E-1,-7.887791097E-2
3.326347923E0,2.031201839E0,1.037324786E0,-7.826705277E-2
3.328758912E0,1.973169565E0,1.078863502E0,-7.826705277E-2
3.331169850E0,1.913915753E0,1.114293694E0,-7.826705277E-2
3.333580839E0,1.854661822E0,1.143615246E0,-7.765618712E-2
3.335991829E0,1.797851443E0,1.166217208E0,-7.765618712E-2
3.338402766E0,1.739208341E0,1.180877924E0,-7.643445581E-2
3.340813756E0,1.679954529E0,1.190040946E0,-7.521272451E-2
3.343224746E0,1.623754978E0,1.190040946E0,-7.276926935E-2
3.345635683E0,1.565722823E0,1.184543133E0,-7.154753804E-2
3.348046673E0,1.509523273E0,1.171715021E0,-7.093667239E-2
3.350457662E0,1.453323722E0,1.150945544E0,-6.788235158E-2
3.352868600E0,1.398345828E0,1.125289321E0,-6.788235158E-2
3.355279589E0,1.342757106E0,1.088637352E0,-6.788235158E-2
3.357690579E0,1.289000988E0,1.048320293E0,-6.543888897E-2
3.360101516E0,1.237077594E0,1.001894593E0,-6.421715766E-2
3.362512506E0,1.184543133E0,9.475276470E-1,-6.299543381E-2
3.364923496E0,1.133230567E0,8.876628876E-1,-6.116283685E-2
3.367334433E0,1.085583091E0,8.216894865E-1,-6.116283685E-2
3.369745423E0,1.038546443E0,7.514400482E-1,-6.116283685E-2
3.372156412E0,9.933425188E-1,6.769145131E-1,-5.994110554E-2
3.374567350E0,9.475276470E-1,5.956695080E-1,-5.749764666E-2
3.376978339E0,9.047670960E-1,5.138136148E-1,-5.688678101E-2
3.379389329E0,8.632283211E-1,4.264599681E-1,-5.749764666E-2
3.381800266E0,8.241329193E-1,3.372737169E-1,-5.566505343E-2
3.384211256E0,7.856484652E-1,2.456440032E-1,-5.444332212E-2
3.386622246E0,7.502183318E-1,1.509599537E-1,-5.322159454E-2
3.389033183E0,7.166207433E-1,5.749764666E-2,-5.261072889E-2
3.391444173E0,6.830231547E-1,-3.657552972E-2,-5.261072889E-2
3.393855162E0,6.524799466E-1,-1.330921650E-1,-5.199986324E-2
3.396266100E0,6.243801713E-1,-2.277761996E-1,-5.016727000E-2
3.398677089E0,5.968912244E-1,-3.224602342E-1,-5.077813566E-2
3.401088079E0,5.718457699E-1,-4.159225523E-1,-4.894553870E-2
3.403499016E0,5.492438078E-1,-5.069414377E-1,-4.772381112E-2
3.405910006E0,5.266417861E-1,-5.973494053E-1,-4.833467677E-2
3.408320996E0,5.083158612E-1,-6.834813356E-1,-4.711294547E-2
3.410731933E0,4.918225110E-1,-7.683915496E-1,-4.711294547E-2
3.413142923E0,4.765508771E-1,-8.502474427E-1,-4.528035223E-2
3.415553912E0,4.618901312E-1,-9.272163510E-1,-4.589121789E-2
3.417964850E0,4.496728480E-1,-1.001741886E0,-4.466948658E-2
3.420375839E0,4.386772811E-1,-1.072602153E0,-4.466948658E-2
3.422786829E0,4.313468933E-1,-1.137353897E0,-4.344775900E-2
3.425197766E0,4.221839309E-1,-1.198440313E0,-4.405862093E-2
3.427608756E0,4.172970057E-1,-1.255861640E0,-4.405862093E-2
3.430019746E0,4.148535430E-1,-1.306563377E0,-4.466948658E-2
3.432430683E0,4.136318266E-1,-1.352378249E0,-4.466948658E-2
3.434841673E0,4.117992222E-1,-1.393306255E0,-4.344775900E-2
3.437252662E0,4.148535430E-1,-1.427514672E0,-4.344775900E-2
3.439663652E0,4.179078639E-1,-1.456836104E0,-4.344775900E-2
3.442074589E0,4.234056473E-1,-1.478827238E0,-4.466948658E-2
3.444485579E0,4.282925725E-1,-1.497153163E0,-4.528035223E-2
3.446896568E0,4.374555349E-1,-1.506927013E0,-4.589121789E-2
3.449307506E0,4.472293854E-1,-1.511203051E0,-4.650207981E-2
3.451718496E0,4.600575268E-1,-1.509370565E0,-4.528035223E-2
3.454129485E0,4.734965563E-1,-1.500207543E0,-4.650207981E-2
3.456540423E0,4.869355857E-1,-1.485546827E0,-4.833467677E-2
3.458951412E0,5.040398240E-1,-1.463555694E0,-4.955640435E-2
3.461362350E0,5.205331445E-1,-1.435455918E0,-5.077813566E-2
3.463773339E0,5.413025618E-1,-1.401247501E0,-5.138900131E-2
3.466184329E0,5.614610910E-1,-1.361541271E0,-5.322159454E-2
3.468595318E0,5.840631127E-1,-1.315115571E0,-5.444332212E-2
3.471006256E0,6.066650748E-1,-1.266246319E0,-5.566505343E-2
3.473417246E0,6.310997009E-1,-1.211879373E0,-5.749764666E-2
3.475828235E0,6.549233794E-1,-1.151403785E0,-5.871937796E-2
3.478239173E0,6.830231547E-1,-1.084819436E0,-6.055197120E-2
3.480650162E0,7.111229897E-1,-1.018235207E0,-6.238456443E-2
3.483061100E0,7.367792726E-1,-9.467640519E-1,-6.360629201E-2
3.485472089E0,7.667116523E-1,-8.722385764E-1,-6.421715766E-2
3.487883079E0,7.972549200E-1,-7.952696085E-1,-6.727148592E-2
3.490294068E0,8.265764117E-1,-7.158571482E-1,-6.849320978E-2
3.492705006E0,8.571196198E-1,-6.340012550E-1,-7.093667239E-2
3.495115996E0,8.882737756E-1,-5.521454215E-1,-7.276926935E-2
3.497526985E0,9.200387001E-1,-4.690677822E-1,-7.399099320E-2
3.499937923E0,9.518036842E-1,-3.866010606E-1,-7.460185885E-2
3.502348912E0,9.817360640E-1,-3.029125631E-1,-7.582359016E-2
3.504759902E0,1.015333652E0,-2.192240953E-1,-7.643445581E-2
3.507170839E0,1.048320293E0,-1.373682171E-1,-7.826705277E-2
3.509581829E0,1.081307054E0,-5.306887627E-2,-7.826705277E-2
3.511992818E0,1.113682866E0,2.817613818E-2,-7.948877662E-2
3.514403756E0,1.144836903E0,1.057559624E-1,-8.009964228E-2
3.516814746E0,1.178434491E0,1.839466542E-1,-8.071050793E-2
3.519225735E0,1.212032080E0,2.596938908E-1,-8.132137358E-2
3.521636673E0,1.243797064E0,3.323867917E-1,-8.132137358E-2
3.524047662E0,1.275562048E0,4.050796926E-1,-8.009964228E-2
3.526458652E0,1.309159636E0,4.741074145E-1,-8.009964228E-2
3.528869589E0,1.341535449E0,5.413025618E-1,-7.948877662E-2
3.531280579E0,1.375132918E0,6.048324704E-1,-8.009964228E-2
3.533691568E0,1.406897902E0,6.653081179E-1,-7.765618712E-2
3.536102506E0,1.438052058E0,7.227293849E-1,-7.704532146E-2
3.538513496E0,1.469206095E0,7.770963311E-1,-7.521272451E-2
3.540924485E0,1.500971079E0,8.277981281E-1,-7.338013500E-2
3.543335423E0,1.533957839E0,8.748347163E-1,-7.215840369E-2
3.545746412E0,1.564501047E0,9.188169837E-1,-6.849320978E-2
3.548157402E0,1.595655203E0,9.573014379E-1,-6.666062027E-2
3.550568339E0,1.626198411E0,9.927316308E-1,-6.482802331E-2
3.552979329E0,1.656741619E0,1.023885727E0,-6.116283685E-2
3.555390318E0,1.686063170E0,1.051374674E0,-5.871937796E-2
3.557801256E0,1.715995550E0,1.073976636E0,-5.627591908E-2
3.560212246E0,1.744095325E0,1.091080904E0,-5.199986324E-2
3.562623235E0,1.772195101E0,1.103909016E0,-4.955640435E-2
3.565034173E0,1.800294876E0,1.113072038E0,-4.528035223E-2
3.567445162E0,1.826562047E0,1.117348075E0,-4.100430012E-2
3.569856152E0,1.852829218E0,1.114904523E0,-3.672824427E-2
3.572267141E0,1.877874732E0,1.109406829E0,-3.306305781E-2
3.574678079E0,1.902920127E0,1.097800374E0,-2.939786762E-2
3.577089068E0,1.926133037E0,1.083139658E0,-2.573267929E-2
3.579500006E0,1.948124170E0,1.062981129E0,-2.206749097E-2
3.581910996E0,1.969504356E0,1.037935615E0,-1.840230078E-2
3.584321985E0,1.992106438E0,1.008614063E0,-1.229365356E-2
3.586732975E0,2.008599758E0,9.750165343E-1,-8.017600514E-3
3.589143912E0,2.026925802E0,9.383646846E-1,-4.352411721E-3
3.591554902E0,2.044640779E0,8.980475664E-1,-1.298087649E-3
3.593965891E0,2.059912443E0,8.528435826E-1,3.588830587E-3
3.596376829E0,2.074573040E0,8.058069944E-1,7.254019380E-3
3.598787818E0,2.086790562E0,7.538834810E-1,1.275180187E-2
3.601198808E0,2.097785950E0,6.995165348E-1,1.641699113E-2
3.603609746E0,2.106949091E0,6.451495886E-1,1.886045001E-2
3.606020735E0,2.115501165E0,5.871174335E-1,2.252563834E-2
3.608431673E0,2.122831583E0,5.278635025E-1,2.557996288E-2
3.610842662E0,2.127718449E0,4.661661983E-1,2.863428742E-2
3.613253652E0,2.132605314E0,4.044688344E-1,3.229947388E-2
3.615664589E0,2.134437799E0,3.397171795E-1,3.535379842E-2
3.618075579E0,2.136881351E0,2.761872411E-1,3.718639165E-2
3.620486568E0,2.136881351E0,2.102138400E-1,4.024071619E-2
3.622897558E0,2.134437799E0,1.448513120E-1,4.085158184E-2
3.625308496E0,2.131383657E0,8.009964228E-2,4.268417507E-2
3.627719485E0,2.128329277E0,1.473711245E-2,4.451677203E-2
3.630130475E0,2.122831583E0,-5.062541738E-2,4.512763396E-2
3.632541412E0,2.114279270E0,-1.165988147E-1,4.573849961E-2
3.634952402E0,2.106949091E0,-1.789070219E-1,4.634936526E-2
3.637363391E0,2.097175121E0,-2.406043708E-1,4.818195850E-2
3.639774329E0,2.085568666E0,-3.035234511E-1,4.818195850E-2
3.642185318E0,2.072740555E0,-3.646099269E-1,4.696023092E-2
3.644596308E0,2.058690548E0,-4.238637984E-1,4.573849961E-2
3.647007246E0,2.042197227E0,-4.831176698E-1,4.573849961E-2
3.649418235E0,2.025093079E0,-5.399280787E-1,4.573849961E-2
3.651829225E0,2.007988930E0,-5.912407637E-1,4.390590638E-2
3.654240162E0,1.987830400E0,-6.456077099E-1,4.268417507E-2
3.656651152E0,1.965839267E0,-6.963095069E-1,4.146244749E-2
3.659062141E0,1.943237185E0,-7.427352071E-1,3.901898861E-2
3.661473079E0,1.919413447E0,-7.909935117E-1,3.657552972E-2
3.663884068E0,1.892535448E0,-8.337540627E-1,3.413207084E-2
3.666295058E0,1.864435673E0,-8.740711212E-1,3.168861195E-2
3.668705996E0,1.835725069E0,-9.107230306E-1,2.924515121E-2
3.671116985E0,1.804570913E0,-9.455423355E-1,2.680169232E-2
3.673527975E0,1.773416758E0,-9.766964316E-1,2.435823344E-2
3.675938912E0,1.736764908E0,-1.005407095E0,2.130390890E-2
3.678349902E0,1.701334715E0,-1.029230833E0,1.702785492E-2
3.680760891E0,1.664682865E0,-1.050611019E0,1.458439697E-2
3.683171829E0,1.626198411E0,-1.068326116E0,1.091920771E-2
3.685582818E0,1.585270405E0,-1.079932570E0,7.254019380E-3
3.687993808E0,1.542509913E0,-1.090317249E0,4.199695308E-3
3.690404746E0,1.498527646E0,-1.095815063E0,-7.635809743E-5
3.692815735E0,1.453323722E0,-1.096425891E0,-4.352411721E-3
3.695226725E0,1.408730507E0,-1.093371630E0,-8.017600514E-3
3.697637662E0,1.359250546E0,-1.089095592E0,-1.229365356E-2
3.700048652E0,1.309770465E0,-1.078099966E0,-1.595884189E-2
3.702459641E0,1.259679556E0,-1.063439250E0,-1.962403022E-2
3.704870579E0,1.208366871E0,-1.045113325E0,-2.328922041E-2
3.707281568E0,1.155221701E0,-1.024343848E0,-2.695440874E-2
3.709692558E0,1.102076411E0,-9.980766773E-1,-3.123046272E-2
3.712103496E0,1.045876861E0,-9.681442976E-1,-3.428478539E-2
3.714514485E0,9.915099144E-1,-9.363793731E-1,-3.917170316E-2
3.716925475E0,9.346994758E-1,-9.009491801E-1,-4.405862093E-2
3.719336464E0,8.778890371E-1,-8.606321216E-1,-4.650207981E-2
3.721747402E0,8.198568821E-1,-8.190932870E-1,-5.138900131E-2
3.724158391E0,7.606030107E-1,-7.738893032E-1,-5.444332212E-2
3.726569381E0,7.007382512E-1,-7.286853194E-1,-5.688678101E-2
3.728980318E0,6.427060962E-1,-6.779835224E-1,-6.055197120E-2
3.731391308E0,5.834522247E-1,-6.278926134E-1,-6.360629201E-2
3.733802298E0,5.235874653E-1,-5.747473836E-1,-6.727148592E-2
3.736213235E0,4.625009894E-1,-5.203804374E-1,-7.215840369E-2
3.738624225E0,4.008036554E-1,-4.641808867E-1,-7.460185885E-2
3.741035214E0,3.384954333E-1,-4.073704481E-1,-7.887791097E-2
3.743446152E0,2.767980993E-1,-3.487274349E-1,-8.132137358E-2
3.745857141E0,2.138790339E-1,-2.894735336E-1,-8.376483619E-2
3.748268131E0,1.515708268E-1,-2.296088040E-1,-8.743002266E-2
3.750679068E0,8.804088831E-2,-1.685223281E-1,-9.109520912E-2
3.753090058E0,2.328922041E-2,-1.074358448E-1,-9.353867173E-2
3.755501048E0,-3.962985426E-2,-4.512763396E-2,-9.659299254E-2
3.757911985E0,-1.037706509E-1,1.595884189E-2,-1.008690447E-1
3.760322975E0,-1.685223281E-1,7.765618712E-2,-1.051450968E-1
3.762733964E0,-2.320522517E-1,1.399643868E-1,-1.069776937E-1
3.765144902E0,-2.992473841E-1,2.028834671E-1,-1.106428802E-1
3.767555891E0,-3.658316433E-1,2.621373534E-1,-1.136972085E-1
3.769966881E0,-4.299724400E-1,3.238346875E-1,-1.173623949E-1
3.772377818E0,-4.983893037E-1,3.843103051E-1,-1.210275814E-1
3.774788808E0,-5.661953092E-1,4.429533184E-1,-1.240819097E-1
3.777199798E0,-6.333904266E-1,5.009855032E-1,-1.277471036E-1
3.779610735E0,-7.018072605E-1,5.559632778E-1,-1.320231557E-1
3.782021725E0,-7.696132660E-1,6.127737164E-1,-1.350774765E-1
3.784432714E0,-8.398627043E-1,6.646972299E-1,-1.405752599E-1
3.786843652E0,-9.082795978E-1,7.147881389E-1,-1.430187225E-1
3.789254641E0,-9.785290360E-1,7.642682195E-1,-1.479056329E-1
3.791665631E0,-1.049389362E0,8.113048077E-1,-1.521816850E-1
3.794076568E0,-1.119027972E0,8.540652990E-1,-1.552360058E-1
3.796487558E0,-1.189888239E0,8.956041336E-1,-1.601229310E-1
3.798898548E0,-1.260137677E0,9.334777594E-1,-1.656207144E-1
3.801309485E0,-1.330997944E0,9.695187807E-1,-1.705076247E-1
3.803720475E0,-1.401247501E0,1.000672817E0,-1.753945500E-1
3.806131464E0,-1.472107768E0,1.027550936E0,-1.796706021E-1
3.808542402E0,-1.542968035E0,1.053207278E0,-1.821140647E-1
3.810953391E0,-1.611995816E0,1.074587464E0,-1.900553107E-1
3.813364381E0,-1.681634426E0,1.092913389E0,-1.961639524E-1
3.815775371E0,-1.751883864E0,1.103909016E0,-1.998291463E-1
3.818186308E0,-1.820300698E0,1.111850262E0,-2.059377879E-1
3.820597298E0,-1.886884928E0,1.116737127E0,-2.114355713E-1
3.823008287E0,-1.954690933E0,1.117348075E0,-2.163224965E-1
3.825419225E0,-2.023107767E0,1.112461090E0,-2.224311382E-1
3.827830214E0,-2.087248564E0,1.105741620E0,-2.267071903E-1
3.830241204E0,-2.152000189E0,1.094135165E0,-2.322049737E-1
3.832652141E0,-2.216751814E0,1.076420069E0,-2.370918989E-1
3.835063131E0,-2.277227640E0,1.056261539E0,-2.432005405E-1
3.837474121E0,-2.339535713E0,1.031216145E0,-2.474765927E-1
3.839885058E0,-2.399400473E0,1.004338026E0,-2.529743910E-1
3.842296048E0,-2.459876060E0,9.719622135E-1,-2.584721744E-1
3.844706985E0,-2.514853954E0,9.365320802E-1,-2.615264952E-1
3.847117975E0,-2.572885990E0,8.956041336E-1,-2.651916742E-1
3.849528964E0,-2.626642227E0,8.522327542E-1,-2.700785995E-1
3.851939954E0,-2.681009054E0,8.064178824E-1,-2.743546367E-1
3.854350891E0,-2.734154463E0,7.569378018E-1,-2.792415619E-1
3.856761881E0,-2.784245253E0,7.068468928E-1,-2.822958827E-1
3.859172871E0,-2.833725452E0,6.512582302E-1,-2.847393453E-1
3.861583808E0,-2.882594585E0,5.944477916E-1,-2.871828079E-1
3.863994798E0,-2.928409338E0,5.364156365E-1,-2.896262705E-1
3.866405787E0,-2.972391605E0,4.741074145E-1,-2.932914495E-1
3.868816725E0,-3.016373873E0,4.111883640E-1,-2.939023077E-1
3.871227714E0,-3.057912827E0,3.464366794E-1,-2.957349122E-1
3.873638704E0,-3.097619057E0,2.804632783E-1,-2.969566286E-1
3.876049641E0,-3.136103392E0,2.132681608E-1,-2.987892330E-1
3.878460631E0,-3.173366070E0,1.460730433E-1,-2.994000912E-1
3.880871621E0,-3.208796263E0,7.643445581E-2,-2.994000912E-1
3.883282558E0,-3.239950418E0,7.406735327E-3,-2.981783748E-1
3.885693548E0,-3.273547888E0,-6.162098423E-2,-2.975675166E-1
3.888104537E0,-3.302869558E0,-1.306487024E-1,-2.969566286E-1
3.890515475E0,-3.329747438E0,-1.984546930E-1,-2.963457704E-1
3.892926464E0,-3.355403900E0,-2.662606835E-1,-2.926805913E-1
3.895337454E0,-3.381060123E0,-3.322340846E-1,-2.914588451E-1
3.897748391E0,-3.400607824E0,-3.957640231E-1,-2.890154123E-1
3.900159381E0,-3.422599077E0,-4.599048197E-1,-2.847393453E-1
3.902570371E0,-3.439703226E0,-5.209913254E-1,-2.829067409E-1
3.904981308E0,-3.457418203E0,-5.802451968E-1,-2.780198455E-1
3.907392298E0,-3.471468210E0,-6.364447474E-1,-2.737437785E-1
3.909803287E0,-3.483074665E0,-6.914225817E-1,-2.700785995E-1
3.912214225E0,-3.491626740E0,-7.402917743E-1,-2.658025324E-1
3.914625214E0,-3.500789642E0,-7.873283625E-1,-2.596938908E-1
3.917036204E0,-3.506898403E0,-8.306997418E-1,-2.560287118E-1
3.919447141E0,-3.511174440E0,-8.710168004E-1,-2.505309284E-1
3.921858131E0,-3.512396097E0,-9.070578218E-1,-2.450331300E-1
3.924269121E0,-3.512396097E0,-9.382119179E-1,-2.383136153E-1
3.926680058E0,-3.508120060E0,-9.644791484E-1,-2.328158319E-1
3.929091048E0,-3.503844023E0,-9.883028269E-1,-2.267071903E-1
3.931502037E0,-3.495291948E0,-1.004185319E0,-2.205985487E-1
3.933912975E0,-3.485517979E0,-1.015180945E0,-2.163224965E-1
3.936323964E0,-3.473911524E0,-1.023122191E0,-2.089921087E-1
3.938734954E0,-3.460472584E0,-1.026176453E0,-2.022725940E-1
3.941145891E0,-3.443979263E0,-1.023122191E0,-1.967748106E-1
3.943556881E0,-3.426264286E0,-1.016402602E0,-1.906661689E-1
3.945967871E0,-3.406105757E0,-1.003574491E0,-1.839466542E-1
3.948378860E0,-3.383503675E0,-9.858593941E-1,-1.790597439E-1
3.950789798E0,-3.359069109E0,-9.632573724E-1,-1.735619605E-1
3.953200787E0,-3.332801819E0,-9.357684851E-1,-1.686750352E-1
3.955611777E0,-3.305923939E0,-9.027817845E-1,-1.637881249E-1
3.958022714E0,-3.274769783E0,-8.655190468E-1,-1.595120728E-1
3.960433704E0,-3.242393970E0,-8.239802122E-1,-1.546251476E-1
3.962844641E0,-3.209407091E0,-7.793871164E-1,-1.509599537E-1
3.965255631E0,-3.174587965E0,-7.305179238E-1,-1.472947747E-1
3.967666621E0,-3.136714220E0,-6.749292016E-1,-1.430187225E-1
3.970077610E0,-3.100673199E0,-6.193405390E-1,-1.399643868E-1
3.972488548E0,-3.060966969E0,-5.600866675E-1,-1.362992078E-1
3.974899537E0,-3.018817425E0,-4.959458411E-1,-1.350774765E-1
3.977310527E0,-2.976667643E0,-4.305832982E-1,-1.338557452E-1
3.979721464E0,-2.933907270E0,-3.639990389E-1,-1.314122826E-1
3.982132454E0,-2.889313936E0,-2.937496006E-1,-1.301905513E-1
3.984543443E0,-2.842888355E0,-2.216675580E-1,-1.289688200E-1
3.986954381E0,-2.794019222E0,-1.501963735E-1,-1.271362305E-1
3.989365371E0,-2.746371746E0,-7.628174126E-2,-1.259144992E-1
3.991776360E0,-2.697502613E0,-2.367100911E-3,-1.265253723E-1
3.994187298E0,-2.646800756E0,7.276926935E-2,-1.265253723E-1
3.996598287E0,-2.596709728E0,1.472947747E-1,-1.271362305E-1
3.999009277E0,-2.544786215E0,2.218202800E-1,-1.277471036E-1
4.001420214E0,-2.491641045E0,2.969566286E-1,-1.283579618E-1
4.003831204E0,-2.437274218E0,3.702604175E-1,-1.295796931E-1
4.006242193E0,-2.384128809E0,4.398989975E-1,-1.308014244E-1
4.008653131E0,-2.329761982E0,5.095375776E-1,-1.314122826E-1
4.011064121E0,-2.273562431E0,5.791761875E-1,-1.338557452E-1
4.013475110E0,-2.217362881E0,6.457604170E-1,-1.350774765E-1
4.015886048E0,-2.163606644E0,7.080686092E-1,-1.375209391E-1
4.018297037E0,-2.106185436E0,7.679333687E-1,-1.399643868E-1
4.020708027E0,-2.049985886E0,8.253546953E-1,-1.417969912E-1
4.023119016E0,-1.993175387E0,8.784999251E-1,-1.430187225E-1
4.025529954E0,-1.935143232E0,9.279799461E-1,-1.448513120E-1
4.027940943E0,-1.878943682E0,9.725731015E-1,-1.479056329E-1
4.030351881E0,-1.822133303E0,1.015944481E0,-1.485165060E-1
4.032762871E0,-1.764711976E0,1.052596331E0,-1.515708268E-1
4.035173860E0,-1.707901597E0,1.084972262E0,-1.527925581E-1
4.037584798E0,-1.652312875E0,1.111850262E0,-1.540142894E-1
4.039995787E0,-1.594891548E0,1.135063171E0,-1.552360058E-1
4.042406777E0,-1.539302945E0,1.150945544E0,-1.576794684E-1
4.044817766E0,-1.484935880E0,1.161941171E0,-1.589011997E-1
4.047228704E0,-1.430568933E0,1.167438984E0,-1.589011997E-1
4.049639693E0,-1.375591159E0,1.169882417E0,-1.595120728E-1
4.052050683E0,-1.321835041E0,1.163773775E0,-1.607337892E-1
4.054461621E0,-1.271133304E0,1.154610753E0,-1.613446623E-1
4.056872610E0,-1.219820619E0,1.136895657E0,-1.613446623E-1
4.059283600E0,-1.170340538E0,1.117958903E0,-1.625663936E-1
4.061694537E0,-1.119638801E0,1.091691732E0,-1.613446623E-1
4.064105527E0,-1.071991324E0,1.059315920E0,-1.601229310E-1
4.066516516E0,-1.025565624E0,1.023274899E0,-1.601229310E-1
4.068927454E0,-9.809724689E-1,9.805143476E-1,-1.595120728E-1
4.071338443E0,-9.357684851E-1,9.359211922E-1,-1.589011997E-1
4.073749433E0,-8.936188221E-1,8.852193952E-1,-1.570686102E-1
4.076160371E0,-8.514691591E-1,8.302416205E-1,-1.564577371E-1
4.078571360E0,-8.142064214E-1,7.715985775E-1,-1.546251476E-1
4.080982350E0,-7.769436240E-1,7.099012136E-1,-1.546251476E-1
4.083393287E0,-7.415134907E-1,6.445387006E-1,-1.521816850E-1
4.085804277E0,-7.079159021E-1,5.767326951E-1,-1.503490955E-1
4.088215266E0,-6.755400896E-1,5.064832568E-1,-1.485165060E-1
4.090626204E0,-6.462185979E-1,4.337903559E-1,-1.466839015E-1
4.093037193E0,-6.193405390E-1,3.592648506E-1,-1.448513120E-1
4.095448183E0,-5.930733681E-1,2.865719497E-1,-1.430187225E-1
4.097859121E0,-5.698604584E-1,2.096029818E-1,-1.411861181E-1
4.100270110E0,-5.484802127E-1,1.332448870E-1,-1.381317973E-1
4.102681100E0,-5.289325118E-1,5.566505343E-2,-1.362992078E-1
4.105092037E0,-5.118283033E-1,-2.069304511E-2,-1.338557452E-1
4.107503027E0,-4.959458411E-1,-9.582941234E-2,-1.320231557E-1
4.109914016E0,-4.818959534E-1,-1.697440445E-1,-1.308014244E-1
4.112325006E0,-4.721221030E-1,-2.442695498E-1,-1.283579618E-1
4.114735943E0,-4.629591405E-1,-3.157407343E-1,-1.271362305E-1
4.117146933E0,-4.556287527E-1,-3.853793144E-1,-1.246927753E-1
4.119557871E0,-4.519635737E-1,-4.519635737E-1,-1.234710440E-1
4.121968860E0,-4.476875365E-1,-5.167152286E-1,-1.216384470E-1
4.124379850E0,-4.482983947E-1,-5.784125924E-1,-1.185841262E-1
4.126790839E0,-4.495201111E-1,-6.346121430E-1,-1.167515293E-1
4.129201777E0,-4.550178945E-1,-6.889790893E-1,-1.167515293E-1
4.131612766E0,-4.605156779E-1,-7.402917743E-1,-1.143080741E-1
4.134023756E0,-4.678460658E-1,-7.854957581E-1,-1.136972085E-1
4.136434693E0,-4.776198864E-1,-8.276454210E-1,-1.124754772E-1
4.138845683E0,-4.910589159E-1,-8.661298752E-1,-1.112537459E-1
4.141256673E0,-5.026653409E-1,-8.972840309E-1,-1.112537459E-1
4.143667610E0,-5.197695494E-1,-9.266055226E-1,-1.100320220E-1
4.146078600E0,-5.387063622E-1,-9.510400891E-1,-1.100320220E-1
4.148489589E0,-5.576431751E-1,-9.675334692E-1,-1.088102907E-1
4.150900527E0,-5.802451968E-1,-9.803616405E-1,-1.100320220E-1
4.153311516E0,-6.040689349E-1,-9.889137149E-1,-1.069776937E-1
4.155722506E0,-6.297252178E-1,-9.895246029E-1,-1.075885594E-1
4.158133443E0,-6.559923887E-1,-9.864702821E-1,-1.081994250E-1
4.160544433E0,-6.859247684E-1,-9.785290360E-1,-1.081994250E-1
4.162955423E0,-7.152463198E-1,-9.638682604E-1,-1.075885594E-1
4.165366360E0,-7.476221323E-1,-9.449314475E-1,-1.094211563E-1
4.167777350E0,-7.806088328E-1,-9.223294854E-1,-1.094211563E-1
4.170188339E0,-8.172607422E-1,-8.936188221E-1,-1.100320220E-1
4.172599277E0,-8.526908755E-1,-8.618538380E-1,-1.100320220E-1
4.175010266E0,-8.899536133E-1,-8.233693838E-1,-1.112537459E-1
4.177421256E0,-9.284381270E-1,-7.818305492E-1,-1.124754772E-1
4.179832193E0,-9.687551856E-1,-7.366265655E-1,-1.143080741E-1
4.182243183E0,-1.010293961E0,-6.871465445E-1,-1.143080741E-1
4.184654173E0,-1.053054571E0,-6.358338594E-1,-1.155297980E-1
4.187065110E0,-1.093982458E0,-5.808560252E-1,-1.167515293E-1
4.189476100E0,-1.137353897E0,-5.234347582E-1,-1.185841262E-1
4.191887089E0,-1.182557821E0,-4.635699987E-1,-1.210275814E-1
4.194298027E0,-1.225929260E0,-4.006509483E-1,-1.222493127E-1
4.196709016E0,-1.271744132E0,-3.389535844E-1,-1.240819097E-1
4.199120006E0,-1.316948056E0,-2.735910714E-1,-1.259144992E-1
4.201530943E0,-1.362762928E0,-2.082285285E-1,-1.271362305E-1
4.203941933E0,-1.407966971E0,-1.422551423E-1,-1.295796931E-1
4.206352923E0,-1.455003500E0,-7.628174126E-2,-1.326340139E-1
4.208763860E0,-1.500207543E0,-1.030834299E-2,-1.338557452E-1
4.211174850E0,-1.547244072E0,5.627591908E-2,-1.375209391E-1
4.213585839E0,-1.592448115E0,1.228601784E-1,-1.411861181E-1
4.215996777E0,-1.638873816E0,1.863901168E-1,-1.448513120E-1
4.218407766E0,-1.685299516E0,2.505309284E-1,-1.472947747E-1
4.220818756E0,-1.731114388E0,3.116174042E-1,-1.503490955E-1
4.223229746E0,-1.776318431E0,3.714821339E-1,-1.540142894E-1
4.225640683E0,-1.821522355E0,4.301251769E-1,-1.576794684E-1
4.228051673E0,-1.868559003E0,4.869355857E-1,-1.619555205E-1
4.230462662E0,-1.913152099E0,5.394699574E-1,-1.650098413E-1
4.232873600E0,-1.957134366E0,5.913934708E-1,-1.680641770E-1
4.235284589E0,-1.999894977E0,6.396517754E-1,-1.729510874E-1
4.237695579E0,-2.043266296E0,6.879100800E-1,-1.772271395E-1
4.240106516E0,-2.086637735E0,7.300597429E-1,-1.821140647E-1
4.242517506E0,-2.131230831E0,7.679333687E-1,-1.863901168E-1
4.244928496E0,-2.170937061E0,8.051961660E-1,-1.906661689E-1
4.247339433E0,-2.211864948E0,8.381828070E-1,-1.943313628E-1
4.249750423E0,-2.250960350E0,8.675043583E-1,-1.986074150E-1
4.252161412E0,-2.291888237E0,8.925498128E-1,-2.022725940E-1
4.254572350E0,-2.331594467E0,9.145409465E-1,-2.083812505E-1
4.256983339E0,-2.368857145E0,9.322559834E-1,-2.132681608E-1
4.259394329E0,-2.403676510E0,9.444733262E-1,-2.169333547E-1
4.261805266E0,-2.440328360E0,9.536362886E-1,-2.230419964E-1
4.264216256E0,-2.474536896E0,9.597449303E-1,-2.248746008E-1
4.266627246E0,-2.510577917E0,9.603558183E-1,-2.297615111E-1
4.269038183E0,-2.542953730E0,9.573014379E-1,-2.346484363E-1
4.271449173E0,-2.574107885E0,9.499710798E-1,-2.389244884E-1
4.273860162E0,-2.604040146E0,9.395864010E-1,-2.432005405E-1
4.276271100E0,-2.632139921E0,9.243147969E-1,-2.474765927E-1
4.278682089E0,-2.660850525E0,9.047670960E-1,-2.517526448E-1
4.281093079E0,-2.686506987E0,8.809433579E-1,-2.554178238E-1
4.283504016E0,-2.710330725E0,8.552870750E-1,-2.584721744E-1
4.285915006E0,-2.731710911E0,8.241329193E-1,-2.621373534E-1
4.288325996E0,-2.755534649E0,7.893136740E-1,-2.651916742E-1
4.290736933E0,-2.773249626E0,7.520508766E-1,-2.670242786E-1
4.293147923E0,-2.792186499E0,7.123447061E-1,-2.706894577E-1
4.295558912E0,-2.808068991E0,6.689732671E-1,-2.725220621E-1
4.297969902E0,-2.822729826E0,6.231584549E-1,-2.755763829E-1
4.300380839E0,-2.834336281E0,5.761218667E-1,-2.767980993E-1
4.302791829E0,-2.845942736E0,5.266417861E-1,-2.780198455E-1
4.305202766E0,-2.855716467E0,4.734965563E-1,-2.798524201E-1
4.307613756E0,-2.862436056E0,4.203513265E-1,-2.804632783E-1
4.310024746E0,-2.869155407E0,3.641517758E-1,-2.810741663E-1
4.312435735E0,-2.872209787E0,3.067304790E-1,-2.816850245E-1
4.314846673E0,-2.874653339E0,2.517526448E-1,-2.816850245E-1
4.317257662E0,-2.874653339E0,1.943313628E-1,-2.810741663E-1
4.319668652E0,-2.873431683E0,1.375209391E-1,-2.810741663E-1
4.322079589E0,-2.870377302E0,8.071050793E-2,-2.798524201E-1
4.324490579E0,-2.865490437E0,2.084576152E-2,-2.780198455E-1
4.326901568E0,-2.858770847E0,-3.535379842E-2,-2.774089575E-1
4.329312506E0,-2.850218773E0,-9.338594973E-2,-2.743546367E-1
4.331723496E0,-2.839833975E0,-1.501963735E-1,-2.725220621E-1
4.334134485E0,-2.828227520E0,-2.057850659E-1,-2.706894577E-1
4.336545423E0,-2.812345028E0,-2.570977211E-1,-2.676351368E-1
4.338956412E0,-2.798906088E0,-3.108538091E-1,-2.639699280E-1
4.341367402E0,-2.780580044E0,-3.627773225E-1,-2.609156072E-1
4.343778339E0,-2.762254238E0,-4.116465151E-1,-2.578612864E-1
4.346189329E0,-2.742095709E0,-4.599048197E-1,-2.541961074E-1
4.348600318E0,-2.721326351E0,-5.069414377E-1,-2.505309284E-1
4.351011256E0,-2.696280718E0,-5.497019291E-1,-2.474765927E-1
4.353422246E0,-2.670624495E0,-5.924624801E-1,-2.425896823E-1
4.355833235E0,-2.644357204E0,-6.327795386E-1,-2.395353466E-1
4.358244173E0,-2.615035772E0,-6.700422764E-1,-2.346484363E-1
4.360655162E0,-2.583881617E0,-7.048615813E-1,-2.297615111E-1
4.363066152E0,-2.553338528E0,-7.366265655E-1,-2.260963321E-1
4.365477089E0,-2.519129992E0,-7.647263408E-1,-2.205985487E-1
4.367888079E0,-2.483088970E0,-7.903826833E-1,-2.163224965E-1
4.370299068E0,-2.446437120E0,-8.160389662E-1,-2.108247131E-1
4.372710006E0,-2.406120062E0,-8.361974955E-1,-2.077703774E-1
4.375120996E0,-2.366413832E0,-8.520799875E-1,-2.022725940E-1
4.377531985E0,-2.324874878E0,-8.667407632E-1,-1.967748106E-1
4.379942923E0,-2.280281782E0,-8.771254420E-1,-1.937204897E-1
4.382353912E0,-2.236299515E0,-8.844558597E-1,-1.882227063E-1
4.384764902E0,-2.189873934E0,-8.881210089E-1,-1.845575273E-1
4.387175891E0,-2.141004801E0,-8.887318969E-1,-1.790597439E-1
4.389586829E0,-2.092135429E0,-8.875101805E-1,-1.747836918E-1
4.391997818E0,-2.040211916E0,-8.820123672E-1,-1.698967665E-1
4.394408808E0,-1.988899350E0,-8.740711212E-1,-1.656207144E-1
4.396819746E0,-1.935143232E0,-8.612430096E-1,-1.631772518E-1
4.399230735E0,-1.880776286E0,-8.459713459E-1,-1.582903415E-1
4.401641725E0,-1.823965907E0,-8.270345330E-1,-1.552360058E-1
4.404052662E0,-1.767766356E0,-8.068760037E-1,-1.509599537E-1
4.406463652E0,-1.709123254E0,-7.818305492E-1,-1.485165060E-1
4.408874641E0,-1.650480270E0,-7.549524903E-1,-1.454621702E-1
4.411285579E0,-1.590004683E0,-7.244092822E-1,-1.417969912E-1
4.413696568E0,-1.531361699E0,-6.944769025E-1,-1.405752599E-1
4.416107558E0,-1.468442559E0,-6.584358811E-1,-1.387426704E-1
4.418518496E0,-1.407356143E0,-6.236165762E-1,-1.362992078E-1
4.420929485E0,-1.343826175E0,-5.857429504E-1,-1.332448870E-1
4.423340475E0,-1.280907035E0,-5.454258919E-1,-1.320231557E-1
4.425751412E0,-1.216766238E0,-5.026653409E-1,-1.295796931E-1
4.428162402E0,-1.155679822E0,-4.617374241E-1,-1.277471036E-1
4.430573391E0,-1.089095592E0,-4.165334105E-1,-1.259144992E-1
4.432984329E0,-1.023733020E0,-3.707185686E-1,-1.240819097E-1
4.435395318E0,-9.583705068E-1,-3.230711222E-1,-1.228601784E-1
4.437806308E0,-8.942296505E-1,-2.766453922E-1,-1.222493127E-1
4.440217246E0,-8.282563090E-1,-2.296088040E-1,-1.204167232E-1
4.442628235E0,-7.598394156E-1,-1.795178801E-1,-1.185841262E-1
4.445039225E0,-6.944769025E-1,-1.318704337E-1,-1.191949919E-1
4.447450162E0,-6.291143894E-1,-8.361211419E-2,-1.179732606E-1
4.449861152E0,-5.619192123E-1,-3.474293277E-2,-1.167515293E-1
4.452272141E0,-4.941132367E-1,1.473711245E-2,-1.167515293E-1
4.454683079E0,-4.281398654E-1,6.360629201E-2,-1.161406636E-1
4.457094068E0,-3.597230017E-1,1.143080741E-1,-1.136972085E-1
4.459505058E0,-2.931387424E-1,1.619555205E-1,-1.136972085E-1
4.461915996E0,-2.241110206E-1,2.096029818E-1,-1.130863428E-1
4.464326985E0,-1.569158882E-1,2.560287118E-1,-1.112537459E-1
4.466737975E0,-8.849903196E-2,3.036761582E-1,-1.112537459E-1
4.469148964E0,-2.130390890E-2,3.470475674E-1,-1.100320220E-1
4.471559902E0,4.833467677E-2,3.910298049E-1,-1.100320220E-1
4.473970891E0,1.161406636E-1,4.325686097E-1,-1.081994250E-1
4.476381881E0,1.863901168E-1,4.753291607E-1,-1.069776937E-1
4.478792818E0,2.529743910E-1,5.156462193E-1,-1.069776937E-1
4.481203808E0,3.238346875E-1,5.535198450E-1,-1.051450968E-1
4.483614798E0,3.928624094E-1,5.907825828E-1,-1.033125073E-1
4.486025735E0,4.606684148E-1,6.256018877E-1,-1.008690447E-1
4.488436725E0,5.309178233E-1,6.579777002E-1,-1.008690447E-1
4.490847714E0,6.005564332E-1,6.897426844E-1,-9.903645515E-2
4.493258652E0,6.689732671E-1,7.184533477E-1,-9.720385820E-2
4.495669641E0,7.398335934E-1,7.453314066E-1,-9.537126124E-2
4.498080631E0,8.082504869E-1,7.685442567E-1,-9.231694043E-2
4.500491568E0,8.778890371E-1,7.899245024E-1,-9.109520912E-2
4.502902558E0,9.469167590E-1,8.088613153E-1,-8.804088831E-2
4.505313548E0,1.017166257E0,8.265764117E-1,-8.559742570E-2
4.507724485E0,1.085583091E0,8.387936950E-1,-8.193223923E-2
4.510135475E0,1.153389096E0,8.491783738E-1,-8.009964228E-2
4.512546464E0,1.221805930E0,8.565087914E-1,-7.521272451E-2
4.514957402E0,1.289611936E0,8.620065451E-1,-7.338013500E-2
4.517368391E0,1.356196165E0,8.644500375E-1,-6.971494108E-2
4.519779381E0,1.424002171E0,8.626174331E-1,-6.666062027E-2
4.522190318E0,1.487532139E0,8.571196198E-1,-6.238456443E-2
4.524601308E0,1.553505540E0,8.516218662E-1,-5.810851231E-2
4.527012298E0,1.617646337E0,8.412371874E-1,-5.383246019E-2
4.529423235E0,1.681787133E0,8.265764117E-1,-5.016727000E-2
4.531834225E0,1.742873549E0,8.106939197E-1,-4.528035223E-2
4.534245214E0,1.804570913E0,7.929788232E-1,-4.039343446E-2
4.536656152E0,1.866268277E0,7.697659731E-1,-3.611737862E-2
4.539067141E0,1.923078656E0,7.453314066E-1,-3.306305781E-2
4.541478131E0,1.982332587E0,7.184533477E-1,-2.817613818E-2
4.543889068E0,2.038532019E0,6.891318560E-1,-2.451094985E-2
4.546300058E0,2.095342636E0,6.585885882E-1,-2.023489587E-2
4.548711048E0,2.149098635E0,6.237692833E-1,-1.534797717E-2
4.551121985E0,2.202243805E0,5.871174335E-1,-1.107192412E-2
4.553532975E0,2.254167318E0,5.498546362E-1,-7.406735327E-3
4.555943964E0,2.305480003E0,5.107592940E-1,-3.130682046E-3
4.558354954E0,2.353738308E0,4.686096311E-1,1.145371469E-3
4.560765891E0,2.401385784E0,4.246273935E-1,4.810560029E-3
4.563176881E0,2.447200775E0,3.800342381E-1,8.475748822E-3
4.565587871E0,2.493015528E0,3.336085379E-1,1.275180187E-2
4.567998808E0,2.536997795E0,2.865719497E-1,1.458439697E-2
4.570409798E0,2.577314854E0,2.389244884E-1,1.947131567E-2
4.572820787E0,2.618242741E0,1.918879002E-1,2.252563834E-2
4.575231725E0,2.656727314E0,1.424078494E-1,2.557996288E-2
4.577642714E0,2.695822716E0,9.170607477E-2,2.802342176E-2
4.580053704E0,2.731252670E0,4.222602770E-2,3.168861195E-2
4.582464641E0,2.764239550E0,-8.475748822E-3,3.229947388E-2
4.584875631E0,2.797226191E0,-5.978839099E-2,3.413207084E-2
4.587286621E0,2.828380346E0,-1.098793000E-1,3.657552972E-2
4.589697558E0,2.857090950E0,-1.587484777E-1,3.779725730E-2
4.592108548E0,2.885801554E0,-2.070067972E-1,3.779725730E-2
4.594519537E0,2.910846949E0,-2.558759749E-1,4.024071619E-2
4.596930475E0,2.937114239E0,-3.029125631E-1,4.085158184E-2
4.599341464E0,2.958494425E0,-3.481165767E-1,4.146244749E-2
4.601752454E0,2.979874849E0,-3.927097023E-1,4.207331315E-2
4.604163391E0,2.999422312E0,-4.342485070E-1,4.024071619E-2
4.606574381E0,3.016526699E0,-4.751764536E-1,4.085158184E-2
4.608985371E0,3.032409191E0,-5.148826241E-1,4.024071619E-2
4.611396308E0,3.046458960E0,-5.521454215E-1,3.779725730E-2
4.613807298E0,3.058065414E0,-5.857429504E-1,3.657552972E-2
4.616218287E0,3.067839384E0,-6.181188226E-1,3.535379842E-2
4.618629225E0,3.077002287E0,-6.474403143E-1,3.291033953E-2
4.621040214E0,3.082499981E0,-6.737074852E-1,3.229947388E-2
4.623451204E0,3.087386847E0,-6.969203353E-1,2.985601686E-2
4.625862193E0,3.089219570E0,-7.176897526E-1,2.802342176E-2
4.628273131E0,3.089830399E0,-7.347939610E-1,2.435823344E-2
4.630684121E0,3.087997913E0,-7.488438487E-1,2.069304511E-2
4.633095058E0,3.084332705E0,-7.586176991E-1,1.886045001E-2
4.635506048E0,3.080056667E0,-7.659480572E-1,1.580612548E-2
4.637917037E0,3.073337078E0,-7.690023780E-1,1.153007243E-2
4.640327975E0,3.064785004E0,-7.683915496E-1,7.254019380E-3
4.642738964E0,3.053178549E0,-7.659480572E-1,4.199695308E-3
4.645149954E0,3.039739609E0,-7.592285872E-1,5.345066893E-4
4.647560943E0,3.025689602E0,-7.464004159E-1,-4.352411721E-3
4.649971881E0,3.009196281E0,-7.323505282E-1,-8.628465235E-3
4.652382871E0,2.992092133E0,-7.152463198E-1,-1.168278884E-2
4.654793860E0,2.971322536E0,-6.932551861E-1,-1.595884189E-2
4.657204798E0,2.949942350E0,-6.688205600E-1,-1.962403022E-2
4.659615787E0,2.927951336E0,-6.407207847E-1,-2.267835476E-2
4.662026777E0,2.902294874E0,-6.101775765E-1,-2.634354308E-2
4.664437714E0,2.875416994E0,-5.771908760E-1,-3.061959706E-2
4.666848704E0,2.848538876E0,-5.399280787E-1,-3.611737862E-2
4.669259693E0,2.819828272E0,-5.020545125E-1,-3.856083751E-2
4.671670631E0,2.788063288E0,-4.592939615E-1,-4.100430012E-2
4.674081621E0,2.756909132E0,-4.153116941E-1,-4.528035223E-2
4.676492610E0,2.723922491E0,-3.688859642E-1,-4.894553870E-2
4.678903548E0,2.687881470E0,-3.218493760E-1,-5.199986324E-2
4.681314537E0,2.653672934E0,-2.723693252E-1,-5.444332212E-2
4.683725527E0,2.617021084E0,-2.204458266E-1,-5.810851231E-2
4.686136464E0,2.578536510E0,-1.679114550E-1,-6.116283685E-2
4.688547454E0,2.540052176E0,-1.141553521E-1,-6.299543381E-2
4.690958443E0,2.500345945E0,-6.039925665E-2,-6.604975462E-2
4.693369433E0,2.460639715E0,-4.199695308E-3,-6.727148592E-2
4.695780371E0,2.416046619E0,4.894553870E-2,-7.093667239E-2
4.698191360E0,2.373896837E0,1.051450968E-1,-7.338013500E-2
4.700602298E0,2.330525398E0,1.613446623E-1,-7.460185885E-2
4.703013287E0,2.287765026E0,2.163224965E-1,-7.643445581E-2
4.705424277E0,2.243171930E0,2.713003159E-1,-7.826705277E-2
4.707835266E0,2.196135283E0,3.238346875E-1,-7.948877662E-2
4.710246204E0,2.149098635E0,3.757582009E-1,-8.009964228E-2
4.712657193E0,2.102672815E0,4.270708263E-1,-8.193223923E-2
4.715068183E0,2.056247234E0,4.783834815E-1,-8.315397054E-2
4.717479121E0,2.006767273E0,5.248091817E-1,-8.315397054E-2
4.719890110E0,1.960341454E0,5.730675459E-1,-8.315397054E-2
4.722301100E0,1.911472201E0,6.158280373E-1,-8.498656005E-2
4.724712037E0,1.862603068E0,6.579777002E-1,-8.437569439E-2
4.727123027E0,1.814344764E0,6.976839304E-1,-8.498656005E-2
4.729534016E0,1.764253855E0,7.312815189E-1,-8.498656005E-2
4.731944954E0,1.715995550E0,7.648790479E-1,-8.620829135E-2
4.734355943E0,1.667737246E0,7.966440320E-1,-8.620829135E-2
4.736766933E0,1.618867993E0,8.229112029E-1,-8.559742570E-2
4.739177871E0,1.570609689E0,8.467349410E-1,-8.559742570E-2
4.741588860E0,1.521129608E0,8.668934703E-1,-8.559742570E-2
4.743999850E0,1.473482251E0,8.833868504E-1,-8.498656005E-2
4.746410787E0,1.425834775E0,8.943824172E-1,-8.437569439E-2
4.748821777E0,1.377576470E0,9.023236632E-1,-8.437569439E-2
4.751232766E0,1.331761599E0,9.072105289E-1,-8.559742570E-2
4.753643704E0,1.286557555E0,9.078214169E-1,-8.559742570E-2
4.756054693E0,1.241353631E0,9.041562080E-1,-8.498656005E-2
4.758465683E0,1.197371364E0,8.949932456E-1,-8.437569439E-2
4.760876621E0,1.152778149E0,8.821650743E-1,-8.376483619E-2
4.763287610E0,1.111239433E0,8.675043583E-1,-8.315397054E-2
4.765698600E0,1.069700599E0,8.479566574E-1,-8.376483619E-2
4.768109537E0,1.029383540E0,8.247438073E-1,-8.254310489E-2
4.770520527E0,9.908990264E-1,7.960331440E-1,-8.193223923E-2
4.772931516E0,9.518036842E-1,7.648790479E-1,-8.193223923E-2
4.775342454E0,9.151517749E-1,7.300597429E-1,-8.132137358E-2
4.777753443E0,8.809433579E-1,6.921861768E-1,-8.071050793E-2
4.780164433E0,8.473458290E-1,6.518690586E-1,-7.948877662E-2
4.782575371E0,8.149699569E-1,6.084976792E-1,-7.765618712E-2
4.784986360E0,7.844267488E-1,5.632936954E-1,-7.826705277E-2
4.787397350E0,7.532726526E-1,5.119810700E-1,-7.887791097E-2
4.789808339E0,7.276163101E-1,4.618901312E-1,-7.765618712E-2
4.792219277E0,7.007382512E-1,4.075231552E-1,-7.643445581E-2
4.794630266E0,6.787471175E-1,3.531562090E-1,-7.521272451E-2
4.797041256E0,6.543125510E-1,2.981783748E-1,-7.521272451E-2
4.799452193E0,6.341540217E-1,2.413679510E-1,-7.399099320E-2
4.801863183E0,6.158280373E-1,1.827249229E-1,-7.276926935E-2
4.804274173E0,6.011673212E-1,1.253036410E-1,-7.215840369E-2
4.806685110E0,5.846739411E-1,6.482802331E-2,-7.215840369E-2
4.809096100E0,5.724566579E-1,5.574141163E-3,-7.154753804E-2
4.811507089E0,5.614610910E-1,-5.184714869E-2,-7.154753804E-2
4.813918027E0,5.510764122E-1,-1.092684343E-1,-6.971494108E-2
4.816329016E0,5.443568826E-1,-1.648571342E-1,-6.910407543E-2
4.818740006E0,5.419133902E-1,-2.210566849E-1,-6.788235158E-2
4.821150943E0,5.382482409E-1,-2.742019296E-1,-6.727148592E-2
4.823561933E0,5.382482409E-1,-3.242928386E-1,-6.666062027E-2
4.825972923E0,5.388590693E-1,-3.743837476E-1,-6.543888897E-2
4.828383860E0,5.425242782E-1,-4.195877314E-1,-6.543888897E-2
4.830794850E0,5.474112034E-1,-4.647917449E-1,-6.543888897E-2
4.833205839E0,5.541307330E-1,-5.051088333E-1,-6.482802331E-2
4.835616829E0,5.632936954E-1,-5.448150039E-1,-6.238456443E-2
4.838027766E0,5.749000907E-1,-5.790234804E-1,-6.116283685E-2
4.840438756E0,5.889499784E-1,-6.089558005E-1,-6.116283685E-2
4.842849693E0,6.042216420E-1,-6.388881803E-1,-6.238456443E-2
4.845260683E0,6.207149625E-1,-6.633228064E-1,-6.116283685E-2
4.847671673E0,6.408734918E-1,-6.816487312E-1,-6.116283685E-2
4.850082662E0,6.622537971E-1,-6.981421113E-1,-6.116283685E-2
4.852493600E0,6.854666471E-1,-7.103593946E-1,-6.055197120E-2
4.854904589E0,7.111229897E-1,-7.170788646E-1,-6.116283685E-2
4.857315579E0,7.373901606E-1,-7.219657898E-1,-6.055197120E-2
4.859726516E0,7.636573315E-1,-7.213549614E-1,-5.994110554E-2
4.862137506E0,7.948114276E-1,-7.164680362E-1,-5.994110554E-2
4.864548496E0,8.277981281E-1,-7.066941857E-1,-6.055197120E-2
4.866959433E0,8.601739407E-1,-6.950877905E-1,-5.994110554E-2
4.869370423E0,8.956041336E-1,-6.779835224E-1,-6.177370250E-2
4.871781412E0,9.316451550E-1,-6.566032767E-1,-6.238456443E-2
4.874192350E0,9.682970047E-1,-6.309469342E-1,-6.177370250E-2
