"Time (s)","Acceleration x (m/s^2)","Acceleration y (m/s^2)","Acceleration z (m/s^2)"
3.031049100E-2,1.052841991E-1,7.211967468E0,7.044469833E0
3.272205300E-2,1.004985496E-1,7.188039303E0,6.982256413E0
3.513304300E-2,9.332008660E-2,7.197610378E0,6.932007313E0
3.754408500E-2,9.571290761E-2,7.185646534E0,6.867401123E0
3.995507400E-2,1.004985496E-1,7.171289444E0,6.807580471E0
4.236611600E-2,1.028913707E-1,7.154539585E0,6.774080753E0
4.477710500E-2,1.292124242E-1,7.121040344E0,6.752545357E0
4.718814700E-2,1.507478207E-1,7.104290485E0,6.750152588E0
4.959913700E-2,1.627119333E-1,7.066005230E0,6.747759819E0
5.201017800E-2,1.914258152E-1,7.049255371E0,6.733402729E0
5.442116800E-2,2.201396823E-1,7.022934437E0,6.711867332E0
5.683215700E-2,2.488535494E-1,6.996613503E0,6.702296257E0
5.924319900E-2,2.656033039E-1,6.958328247E0,6.699903488E0
6.165424100E-2,2.919243574E-1,6.912864685E0,6.707081795E0
6.406523000E-2,3.110669553E-1,6.912864685E0,6.716653347E0
6.647622000E-2,3.278166950E-1,6.879364967E0,6.699903488E0
6.888726200E-2,3.206382394E-1,6.862615108E0,6.697510719E0
7.129825100E-2,3.373879790E-1,6.848258495E0,6.702296257E0
7.370929300E-2,3.206382394E-1,6.869793892E0,6.690331936E0
7.612028200E-2,2.871387303E-1,6.874579430E0,6.687939167E0
7.853132400E-2,2.632105052E-1,6.857829571E0,6.687939167E0
8.094231400E-2,2.416750938E-1,6.865008354E0,6.702296257E0
8.335335500E-2,1.890329868E-1,6.874579430E0,6.699903488E0
8.576434500E-2,1.603191197E-1,6.893722057E0,6.702296257E0
8.817538700E-2,1.339980662E-1,6.915257454E0,6.709474564E0
9.058637600E-2,1.268195957E-1,6.915257454E0,6.726224422E0
9.299741800E-2,1.172483116E-1,6.912864685E0,6.745367050E0
9.540840700E-2,1.244267747E-1,6.915257454E0,6.778866768E0
9.781939700E-2,1.531406492E-1,6.934400082E0,6.800402164E0
1.002304390E-1,1.579262912E-1,6.936792850E0,6.855436802E0
1.026414280E-1,1.722832322E-1,6.936792850E0,6.891329288E0
1.050524700E-1,1.555334777E-1,6.943971157E0,6.917650223E0
1.074634600E-1,1.339980662E-1,6.932007313E0,6.948757172E0
1.098745010E-1,1.459621787E-1,6.920042992E0,6.975078106E0
1.122854910E-1,1.459621787E-1,6.915257454E0,6.975078106E0
1.146965320E-1,1.459621787E-1,6.915257454E0,6.975078106E0
1.171075220E-1,1.292124242E-1,6.900900364E0,7.001399040E0
1.195185640E-1,1.172483116E-1,6.912864685E0,7.015756130E0
1.219295530E-1,1.076770201E-1,6.896114826E0,7.032505512E0
1.243405950E-1,8.853443712E-2,6.898507595E0,7.046862602E0
1.267515850E-1,8.853443712E-2,6.891329288E0,7.056434155E0
1.291626260E-1,1.028913707E-1,6.891329288E0,7.056434155E0
1.315736160E-1,1.268195957E-1,6.888936520E0,7.058826923E0
1.339846570E-1,1.387837082E-1,6.869793892E0,7.068397999E0
1.363956470E-1,1.603191197E-1,6.869793892E0,7.044469833E0
1.388066890E-1,1.579262912E-1,6.867401123E0,6.979863644E0
1.412176780E-1,1.244267747E-1,6.884150982E0,6.924828529E0
1.436286680E-1,5.742774159E-2,6.922435760E0,6.876972198E0
1.460397100E-1,-3.349951655E-2,6.958328247E0,6.850651264E0
1.484506990E-1,-1.244267747E-1,6.979863644E0,6.853044033E0
1.508617410E-1,-1.986042857E-1,6.984649181E0,6.862615108E0
1.532727300E-1,-2.416750938E-1,7.013363361E0,6.876972198E0
1.556837720E-1,-2.823530734E-1,7.037291527E0,6.893722057E0
1.580947620E-1,-2.727817893E-1,7.034898758E0,6.932007313E0
1.605058030E-1,-2.536391914E-1,7.039684296E0,6.965506554E0
1.629167930E-1,-2.512463629E-1,7.046862602E0,7.013363361E0
1.653278350E-1,-2.081755698E-1,7.051648140E0,7.056434155E0
1.677388240E-1,-2.057827413E-1,7.058826923E0,7.109076023E0
1.701498660E-1,-1.866401732E-1,7.061219692E0,7.173682213E0
1.725608550E-1,-1.746760458E-1,7.075576782E0,7.228717327E0
1.749718970E-1,-1.603191197E-1,7.099504948E0,7.264609337E0
1.773828870E-1,-1.651047617E-1,7.140182972E0,7.274180889E0
1.797938760E-1,-1.866401732E-1,7.168896675E0,7.298109055E0
1.822049180E-1,-2.129612118E-1,7.176074982E0,7.322037220E0
1.846159070E-1,-2.225325108E-1,7.188039303E0,7.360322475E0
1.870269490E-1,-2.560320199E-1,7.197610378E0,7.410571575E0
1.894379390E-1,-2.703889608E-1,7.197610378E0,7.441678524E0
1.918489800E-1,-2.656033039E-1,7.195217609E0,7.441678524E0
1.942599700E-1,-2.919243574E-1,7.221538544E0,7.427321434E0
1.966710120E-1,-3.182454109E-1,7.219145775E0,7.405786037E0
1.990820010E-1,-3.517449200E-1,7.223931789E0,7.386643410E0
2.014930430E-1,-3.732803464E-1,7.243073940E0,7.403393269E0
2.039040320E-1,-4.091726840E-1,7.262216568E0,7.427321434E0
2.063150740E-1,-4.426721931E-1,7.262216568E0,7.446464062E0
2.087260640E-1,-4.522434771E-1,7.259823799E0,7.463213921E0
2.111371050E-1,-4.618147612E-1,7.255038261E0,7.482356548E0
2.135480950E-1,-4.857429862E-1,7.269395351E0,7.475177765E0
2.159591370E-1,-4.857429862E-1,7.278966427E0,7.503891945E0
2.183701260E-1,-4.642075896E-1,7.271788120E0,7.503891945E0
2.207811680E-1,-4.498506486E-1,7.264609337E0,7.506284714E0
2.231921570E-1,-4.594219327E-1,7.247859955E0,7.518248558E0
2.256031470E-1,-4.737788737E-1,7.245467186E0,7.503891945E0
2.280141890E-1,-4.857429862E-1,7.223931789E0,7.467999458E0
2.304251780E-1,-5.120640397E-1,7.228717327E0,7.432106972E0
2.328362200E-1,-5.359922647E-1,7.204789162E0,7.398607731E0
2.352472100E-1,-5.599204898E-1,7.185646534E0,7.362715244E0
2.376582510E-1,-5.910272002E-1,7.176074982E0,7.324429989E0
2.400692410E-1,-6.053841114E-1,7.161718369E0,7.293323517E0
2.424802820E-1,-6.173482537E-1,7.149754047E0,7.252645493E0
2.448912720E-1,-6.388836503E-1,7.128218651E0,7.202396393E0
2.473023140E-1,-6.340979934E-1,7.123433113E0,7.168896675E0
2.497133030E-1,-6.149554253E-1,7.073183537E0,7.140182972E0
2.521243450E-1,-6.077769399E-1,7.018148899E0,7.133004189E0
2.545353350E-1,-5.862415433E-1,6.979863644E0,7.121040344E0
2.569463760E-1,-5.383850932E-1,6.958328247E0,7.133004189E0
2.593573660E-1,-5.168496966E-1,6.939185619E0,7.135396957E0
2.617683550E-1,-4.594219327E-1,6.900900364E0,7.144968510E0
2.641793970E-1,-4.163511395E-1,6.876972198E0,7.159325123E0
2.665903870E-1,-3.732803464E-1,6.865008354E0,7.188039303E0
2.690014280E-1,-3.493520916E-1,6.865008354E0,7.226324558E0
2.714124180E-1,-3.182454109E-1,6.826723099E0,7.267002583E0
2.738234600E-1,-2.943171859E-1,6.812366009E0,7.293323517E0
2.762344490E-1,-2.967100143E-1,6.817151546E0,7.314858913E0
2.786454910E-1,-2.895315289E-1,6.838686943E0,7.324429989E0
2.810564800E-1,-2.943171859E-1,6.850651264E0,7.300501823E0
2.834675220E-1,-3.038884699E-1,6.843472958E0,7.300501823E0
2.858785120E-1,-3.134597540E-1,6.838686943E0,7.300501823E0
2.882895530E-1,-3.445664644E-1,6.836294174E0,7.307680130E0
2.907005430E-1,-3.565305769E-1,6.836294174E0,7.331608772E0
2.931115850E-1,-3.684946895E-1,6.848258495E0,7.367500782E0
2.955225740E-1,-3.876372576E-1,6.879364967E0,7.386643410E0
2.979336160E-1,-4.043870270E-1,6.898507595E0,7.398607731E0
3.003446050E-1,-4.235295951E-1,6.915257454E0,7.420143127E0
3.027556470E-1,-4.307080805E-1,6.915257454E0,7.420143127E0
3.051666370E-1,-4.378865361E-1,6.893722057E0,7.401000500E0
3.075776260E-1,-4.426721931E-1,6.896114826E0,7.384250641E0
3.099886680E-1,-4.426721931E-1,6.891329288E0,7.362715244E0
3.123996570E-1,-4.354937077E-1,6.896114826E0,7.324429989E0
3.148106990E-1,-4.378865361E-1,6.888936520E0,7.267002583E0
3.172216890E-1,-4.402793646E-1,6.896114826E0,7.211967468E0
3.196327300E-1,-4.378865361E-1,6.917650223E0,7.176074982E0
3.220437200E-1,-4.331009090E-1,6.917650223E0,7.144968510E0
3.244547620E-1,-4.115654826E-1,6.905686378E0,7.125825882E0
3.268657510E-1,-3.948157430E-1,6.900900364E0,7.128218651E0
3.292767930E-1,-4.019941986E-1,6.908079147E0,7.106683254E0
3.316877820E-1,-3.684946895E-1,6.874579430E0,7.089933395E0
3.340988240E-1,-3.302095234E-1,6.869793892E0,7.080362320E0
3.365098140E-1,-2.943171859E-1,6.874579430E0,7.042077065E0
3.389208550E-1,-2.632105052E-1,6.853044033E0,6.987041950E0
3.413318450E-1,-2.273181528E-1,6.821937561E0,6.955935478E0
3.437428870E-1,-1.842473447E-1,6.821937561E0,6.929614544E0
3.461538760E-1,-1.507478207E-1,6.819544315E0,6.908079147E0
3.485648660E-1,-1.339980662E-1,6.795616150E0,6.884150982E0
3.509759070E-1,-1.220339537E-1,6.776473522E0,6.869793892E0
3.533868970E-1,-1.076770201E-1,6.764509678E0,6.867401123E0
3.557979390E-1,-8.614161611E-2,6.778866768E0,6.886543751E0
3.582089280E-1,-9.810572863E-2,6.795616150E0,6.929614544E0
3.606199700E-1,-1.100698411E-1,6.807580471E0,6.963113785E0
3.630309600E-1,-1.196411327E-1,6.824330330E0,7.008577347E0
3.654420010E-1,-1.268195957E-1,6.848258495E0,7.049255371E0
3.678529910E-1,-1.196411327E-1,6.848258495E0,7.087540627E0
3.702640320E-1,-1.292124242E-1,6.888936520E0,7.113861561E0
3.726750220E-1,-1.316052526E-1,6.898507595E0,7.142575741E0
3.750860640E-1,-1.196411327E-1,6.922435760E0,7.164111137E0
3.774970530E-1,-1.339980662E-1,6.953542709E0,7.180860519E0
3.799080950E-1,-1.411765367E-1,6.948757172E0,7.178467751E0
3.823190850E-1,-1.651047617E-1,6.960721016E0,7.180860519E0
3.847300740E-1,-1.698904037E-1,6.972685337E0,7.188039303E0
3.871411160E-1,-1.818545163E-1,7.015756130E0,7.192824841E0
3.895521570E-1,-1.770688742E-1,7.015756130E0,7.200003147E0
3.919631470E-1,-1.866401732E-1,7.025327206E0,7.188039303E0
3.943741370E-1,-1.818545163E-1,7.032505512E0,7.178467751E0
3.967851780E-1,-1.986042857E-1,7.042077065E0,7.176074982E0
3.991961680E-1,-1.866401732E-1,7.037291527E0,7.176074982E0
4.016072100E-1,-1.794617027E-1,7.018148899E0,7.147361279E0
4.040181990E-1,-1.842473447E-1,7.008577347E0,7.133004189E0
4.064292410E-1,-1.579262912E-1,7.001399040E0,7.121040344E0
4.088402300E-1,-1.339980662E-1,6.991827965E0,7.077969551E0
4.112512720E-1,-1.220339537E-1,6.967899323E0,7.039684296E0
4.136622620E-1,-9.810572863E-2,6.955935478E0,7.010970116E0
4.160733030E-1,-9.571290761E-2,6.927221775E0,6.951149940E0
4.184842930E-1,-9.092725813E-2,6.929614544E0,6.888936520E0
4.208953350E-1,-1.028913707E-1,6.912864685E0,6.836294174E0
4.233063240E-1,-1.148554832E-1,6.900900364E0,6.817151546E0
4.257173660E-1,-1.172483116E-1,6.898507595E0,6.807580471E0
4.281283550E-1,-1.292124242E-1,6.884150982E0,6.817151546E0
4.305393970E-1,-1.507478207E-1,6.874579430E0,6.836294174E0
4.329503870E-1,-1.363908947E-1,6.865008354E0,6.836294174E0
4.353613760E-1,-1.627119333E-1,6.874579430E0,6.855436802E0
4.377724180E-1,-1.627119333E-1,6.881757736E0,6.860222340E0
4.401834070E-1,-1.531406492E-1,6.898507595E0,6.867401123E0
4.425944490E-1,-1.531406492E-1,6.915257454E0,6.900900364E0
4.450054390E-1,-1.579262912E-1,6.917650223E0,6.929614544E0
4.474164800E-1,-1.722832322E-1,6.941578388E0,6.963113785E0
4.498274700E-1,-1.794617027E-1,6.982256413E0,6.999006271E0
4.522385120E-1,-2.033899277E-1,6.977470875E0,7.034898758E0
4.546495010E-1,-2.009970993E-1,7.018148899E0,7.061219692E0
4.570605430E-1,-2.273181528E-1,7.066005230E0,7.063612461E0
4.594715320E-1,-2.656033039E-1,7.082755089E0,7.109076023E0
4.618825740E-1,-2.967100143E-1,7.104290485E0,7.128218651E0
4.642935640E-1,-3.158525825E-1,7.101897717E0,7.168896675E0
4.667045530E-1,-3.517449200E-1,7.121040344E0,7.192824841E0
4.691155950E-1,-3.900300860E-1,7.133004189E0,7.211967468E0
4.715266370E-1,-4.043870270E-1,7.161718369E0,7.221538544E0
4.739376260E-1,-4.235295951E-1,7.168896675E0,7.245467186E0
4.763486160E-1,-4.498506486E-1,7.171289444E0,7.250252724E0
4.787596570E-1,-4.594219327E-1,7.173682213E0,7.262216568E0
4.811706470E-1,-4.570291340E-1,7.176074982E0,7.283751965E0
4.835816890E-1,-4.594219327E-1,7.180860519E0,7.281359196E0
4.859926780E-1,-4.713860750E-1,7.204789162E0,7.300501823E0
4.884037200E-1,-4.594219327E-1,7.200003147E0,7.300501823E0
4.908147100E-1,-4.498506486E-1,7.192824841E0,7.293323517E0
4.932257510E-1,-4.307080805E-1,7.183253765E0,7.288537979E0
4.956367410E-1,-3.996013701E-1,7.164111137E0,7.278966427E0
4.980477820E-1,-3.852444589E-1,7.171289444E0,7.290930748E0
5.004587720E-1,-3.756731451E-1,7.152146816E0,7.307680130E0
5.028698140E-1,-3.517449200E-1,7.135396957E0,7.302894592E0
5.052808030E-1,-3.326023519E-1,7.128218651E0,7.300501823E0
5.076918450E-1,-3.230310678E-1,7.125825882E0,7.276573658E0
5.101028350E-1,-2.991028428E-1,7.111468792E0,7.269395351E0
5.125138240E-1,-2.823530734E-1,7.111468792E0,7.267002583E0
5.149248660E-1,-2.440679073E-1,7.116254330E0,7.252645493E0
5.173358550E-1,-2.368894368E-1,7.094718933E0,7.247859955E0
5.197468970E-1,-2.129612118E-1,7.097112179E0,7.235895634E0
5.221578870E-1,-1.986042857E-1,7.099504948E0,7.223931789E0
5.245689280E-1,-1.890329868E-1,7.099504948E0,7.214360237E0
5.269799180E-1,-1.722832322E-1,7.082755089E0,7.211967468E0
5.293909600E-1,-1.674975902E-1,7.099504948E0,7.183253765E0
5.318019490E-1,-1.435693651E-1,7.104290485E0,7.152146816E0
5.342129910E-1,-1.028913707E-1,7.087540627E0,7.133004189E0
5.366239800E-1,-9.810572863E-2,7.070790768E0,7.121040344E0
5.390350220E-1,-7.657032460E-2,7.061219692E0,7.104290485E0
5.414460120E-1,-6.460621208E-2,7.058826923E0,7.106683254E0
5.438570530E-1,-5.982056633E-2,7.063612461E0,7.085147858E0
5.462680430E-1,-7.657032460E-2,7.058826923E0,7.066005230E0
5.486790850E-1,-8.853443712E-2,7.034898758E0,7.032505512E0
5.510900740E-1,-9.092725813E-2,7.037291527E0,7.013363361E0
5.535010640E-1,-9.332008660E-2,7.027719975E0,7.018148899E0
5.559121050E-1,-1.268195957E-1,7.044469833E0,7.015756130E0
5.583230950E-1,-1.483550072E-1,7.039684296E0,7.022934437E0
5.607341370E-1,-1.627119333E-1,7.042077065E0,7.039684296E0
5.631451260E-1,-1.866401732E-1,7.061219692E0,7.049255371E0
5.655561680E-1,-2.081755698E-1,7.077969551E0,7.068397999E0
5.679671570E-1,-2.249253243E-1,7.104290485E0,7.092326164E0
5.703781990E-1,-2.368894368E-1,7.147361279E0,7.085147858E0
5.727891890E-1,-2.656033039E-1,7.173682213E0,7.104290485E0
5.752002300E-1,-2.703889608E-1,7.171289444E0,7.135396957E0
5.776112200E-1,-2.679961324E-1,7.166503906E0,7.144968510E0
5.800222620E-1,-2.727817893E-1,7.152146816E0,7.147361279E0
5.824332510E-1,-2.775674164E-1,7.140182972E0,7.166503906E0
5.848442930E-1,-2.727817893E-1,7.135396957E0,7.176074982E0
5.872552820E-1,-2.703889608E-1,7.106683254E0,7.183253765E0
5.896663240E-1,-2.632105052E-1,7.099504948E0,7.192824841E0
5.920773140E-1,-2.392822653E-1,7.094718933E0,7.195217609E0
5.944883030E-1,-2.129612118E-1,7.099504948E0,7.190432072E0
5.968993450E-1,-1.746760458E-1,7.063612461E0,7.188039303E0
5.993103350E-1,-1.531406492E-1,7.034898758E0,7.188039303E0
6.017213760E-1,-1.292124242E-1,7.027719975E0,7.178467751E0
6.041323660E-1,-8.853443712E-2,6.979863644E0,7.152146816E0
6.065434070E-1,-7.178468257E-2,6.951149940E0,7.118647575E0
6.089543970E-1,-4.546362907E-2,6.932007313E0,7.087540627E0
6.113654390E-1,-2.632104978E-2,6.888936520E0,7.058826923E0
6.137764280E-1,-1.435693540E-2,6.879364967E0,7.022934437E0
6.161874700E-1,2.392822644E-3,6.869793892E0,7.003791809E0
6.185984600E-1,1.674975827E-2,6.860222340E0,7.001399040E0
6.210095010E-1,-9.571290575E-3,6.848258495E0,6.984649181E0
6.234204910E-1,-1.674975827E-2,6.845865726E0,6.963113785E0
6.258315320E-1,-4.546362907E-2,6.841079712E0,6.955935478E0
6.282425220E-1,-4.785645381E-2,6.848258495E0,6.941578388E0
6.306535640E-1,-6.699903309E-2,6.850651264E0,6.936792850E0
6.330645530E-1,-6.221338734E-2,6.850651264E0,6.946363926E0
6.354755430E-1,-5.742774159E-2,6.843472958E0,6.960721016E0
6.378865850E-1,-6.699903309E-2,6.831508636E0,6.977470875E0
6.402975740E-1,-7.417750359E-2,6.814758778E0,7.006184578E0
6.427086160E-1,-5.742774159E-2,6.836294174E0,7.032505512E0
6.451196050E-1,-6.939185411E-2,6.833901405E0,7.030112743E0
6.475306470E-1,-5.264209956E-2,6.860222340E0,7.032505512E0
6.499416370E-1,-7.417750359E-2,6.888936520E0,7.006184578E0
6.523526780E-1,-9.332008660E-2,6.915257454E0,6.989434719E0
6.547636680E-1,-1.196411327E-1,6.929614544E0,6.979863644E0
6.571747100E-1,-1.531406492E-1,6.943971157E0,6.982256413E0
6.595856990E-1,-1.890329868E-1,6.951149940E0,6.984649181E0
6.619967410E-1,-2.201396823E-1,6.984649181E0,7.013363361E0
6.644077300E-1,-2.656033039E-1,7.006184578E0,7.039684296E0
6.668187720E-1,-2.895315289E-1,7.030112743E0,7.056434155E0
6.692297620E-1,-3.110669553E-1,7.027719975E0,7.061219692E0
6.716408030E-1,-3.230310678E-1,7.044469833E0,7.068397999E0
6.740517930E-1,-3.326023519E-1,7.051648140E0,7.073183537E0
6.764627820E-1,-3.397808075E-1,7.073183537E0,7.087540627E0
6.788738240E-1,-3.373879790E-1,7.075576782E0,7.092326164E0
6.812848140E-1,-3.637090325E-1,7.075576782E0,7.099504948E0
6.836958550E-1,-3.637090325E-1,7.070790768E0,7.116254330E0
6.861068450E-1,-3.637090325E-1,7.073183537E0,7.135396957E0
6.885178870E-1,-3.756731451E-1,7.063612461E0,7.125825882E0
6.909288760E-1,-3.876372576E-1,7.075576782E0,7.106683254E0
6.933399180E-1,-3.996013701E-1,7.094718933E0,7.080362320E0
6.957509070E-1,-4.043870270E-1,7.104290485E0,7.073183537E0
6.981619490E-1,-4.259224236E-1,7.109076023E0,7.063612461E0
7.005729390E-1,-4.450650215E-1,7.101897717E0,7.051648140E0
7.029839800E-1,-4.283152521E-1,7.094718933E0,7.061219692E0
7.053949700E-1,-4.259224236E-1,7.080362320E0,7.063612461E0
7.078060120E-1,-4.115654826E-1,7.085147858E0,7.054041386E0
7.102170010E-1,-3.852444589E-1,7.061219692E0,7.044469833E0
7.126279910E-1,-3.469592929E-1,7.051648140E0,7.046862602E0
7.150390320E-1,-3.134597540E-1,7.054041386E0,7.051648140E0
7.174500220E-1,-2.943171859E-1,7.034898758E0,7.051648140E0
7.198610640E-1,-2.584248483E-1,7.034898758E0,7.056434155E0
7.222720530E-1,-2.153540403E-1,7.046862602E0,7.063612461E0
7.246830950E-1,-1.770688742E-1,7.037291527E0,7.080362320E0
7.270940850E-1,-1.555334777E-1,7.030112743E0,7.106683254E0
7.295051260E-1,-1.100698411E-1,7.020541668E0,7.121040344E0
7.319161160E-1,-7.417750359E-2,7.022934437E0,7.137789726E0
7.343271570E-1,-4.067798331E-2,7.020541668E0,7.161718369E0
7.367381470E-1,-3.110669367E-2,7.010970116E0,7.171289444E0
7.391491890E-1,-4.785645287E-3,6.994220734E0,7.188039303E0
7.415601780E-1,-2.392822690E-2,6.977470875E0,7.204789162E0
7.439712200E-1,-2.632104978E-2,6.984649181E0,7.200003147E0
7.463822100E-1,-4.307080805E-2,6.987041950E0,7.183253765E0
7.487932510E-1,-7.178468257E-2,6.989434719E0,7.161718369E0
7.512042410E-1,-1.172483116E-1,6.994220734E0,7.130611420E0
7.536152300E-1,-1.411765367E-1,7.030112743E0,7.101897717E0
7.560262720E-1,-1.722832322E-1,7.046862602E0,7.087540627E0
7.584372620E-1,-2.201396823E-1,7.051648140E0,7.080362320E0
7.608483030E-1,-2.440679073E-1,7.068397999E0,7.073183537E0
7.632592930E-1,-3.014956415E-1,7.106683254E0,7.070790768E0
7.656703350E-1,-3.445664644E-1,7.123433113E0,7.077969551E0
7.680813240E-1,-3.804588020E-1,7.159325123E0,7.089933395E0
7.704923660E-1,-4.019941986E-1,7.192824841E0,7.109076023E0
7.729033550E-1,-4.067798555E-1,7.211967468E0,7.142575741E0
7.753143970E-1,-4.091726840E-1,7.223931789E0,7.161718369E0
7.777253870E-1,-4.139583111E-1,7.235895634E0,7.171289444E0
7.801364280E-1,-4.163511395E-1,7.247859955E0,7.204789162E0
7.825474180E-1,-4.091726840E-1,7.252645493E0,7.219145775E0
7.849584600E-1,-3.996013701E-1,7.264609337E0,7.226324558E0
7.873694490E-1,-3.996013701E-1,7.271788120E0,7.202396393E0
7.897804390E-1,-3.756731451E-1,7.250252724E0,7.171289444E0
7.921914800E-1,-3.708875179E-1,7.243073940E0,7.159325123E0
7.946024700E-1,-3.613162339E-1,7.226324558E0,7.133004189E0
7.970135120E-1,-3.661018610E-1,7.221538544E0,7.125825882E0
7.994245010E-1,-3.541377485E-1,7.197610378E0,7.118647575E0
8.018355430E-1,-3.302095234E-1,7.190432072E0,7.125825882E0
8.042465320E-1,-3.110669553E-1,7.152146816E0,7.133004189E0
8.066575740E-1,-2.632105052E-1,7.116254330E0,7.130611420E0
8.090685640E-1,-2.057827413E-1,7.099504948E0,7.101897717E0
8.114796050E-1,-1.674975902E-1,7.085147858E0,7.094718933E0
8.138905950E-1,-1.603191197E-1,7.063612461E0,7.092326164E0
8.163016370E-1,-1.052841991E-1,7.054041386E0,7.111468792E0
8.187126260E-1,-7.178468257E-2,7.027719975E0,7.133004189E0
8.211236680E-1,-4.546362907E-2,7.030112743E0,7.144968510E0
8.235346570E-1,-3.589234129E-2,7.006184578E0,7.173682213E0
8.259456470E-1,1.196411345E-2,6.979863644E0,7.180860519E0
8.283566890E-1,2.153540403E-2,6.984649181E0,7.171289444E0
8.307676780E-1,9.571290575E-3,7.001399040E0,7.164111137E0
8.331787200E-1,7.178467698E-3,6.999006271E0,7.171289444E0
8.355897100E-1,-1.435693540E-2,7.020541668E0,7.173682213E0
8.380007510E-1,-3.589234129E-2,7.015756130E0,7.171289444E0
8.404117410E-1,-7.657032460E-2,7.020541668E0,7.147361279E0
8.428227820E-1,-1.004985496E-1,7.025327206E0,7.140182972E0
8.452337720E-1,-1.316052526E-1,7.034898758E0,7.125825882E0
8.476448140E-1,-1.627119333E-1,7.056434155E0,7.116254330E0
8.500558030E-1,-1.842473447E-1,7.058826923E0,7.097112179E0
8.524668450E-1,-1.986042857E-1,7.056434155E0,7.077969551E0
8.548778350E-1,-2.368894368E-1,7.075576782E0,7.075576782E0
8.572888760E-1,-2.416750938E-1,7.073183537E0,7.058826923E0
8.596998660E-1,-2.392822653E-1,7.077969551E0,7.049255371E0
8.621108550E-1,-2.440679073E-1,7.056434155E0,7.039684296E0
8.645218970E-1,-2.464607358E-1,7.042077065E0,7.022934437E0
8.669328870E-1,-2.440679073E-1,7.044469833E0,7.015756130E0
8.693439280E-1,-2.464607358E-1,7.015756130E0,7.006184578E0
8.717549180E-1,-2.488535494E-1,7.032505512E0,7.001399040E0
8.741659600E-1,-2.225325108E-1,7.027719975E0,6.991827965E0
8.765769490E-1,-1.794617027E-1,7.015756130E0,6.994220734E0
8.789879910E-1,-1.579262912E-1,7.001399040E0,7.013363361E0
8.813989800E-1,-1.603191197E-1,6.987041950E0,7.020541668E0
8.838100220E-1,-1.483550072E-1,6.970292568E0,7.032505512E0
8.862210120E-1,-1.316052526E-1,6.963113785E0,7.037291527E0
8.886320530E-1,-1.268195957E-1,6.955935478E0,7.049255371E0
8.910430430E-1,-1.100698411E-1,6.955935478E0,7.063612461E0
8.934540850E-1,-8.853443712E-2,6.948757172E0,7.058826923E0
8.958650740E-1,-9.332008660E-2,6.963113785E0,7.070790768E0
8.982761160E-1,-7.896314561E-2,6.934400082E0,7.075576782E0
9.006871050E-1,-7.896314561E-2,6.936792850E0,7.061219692E0
9.030981470E-1,-7.178468257E-2,6.941578388E0,7.068397999E0
9.055091370E-1,-9.092725813E-2,6.929614544E0,7.056434155E0
9.079201260E-1,-9.332008660E-2,6.903293133E0,7.046862602E0
9.103311680E-1,-1.028913707E-1,6.917650223E0,7.058826923E0
9.127421570E-1,-1.220339537E-1,6.917650223E0,7.073183537E0
9.151531990E-1,-9.571290761E-2,6.900900364E0,7.085147858E0
9.175641890E-1,-7.896314561E-2,6.908079147E0,7.089933395E0
9.199752300E-1,-6.699903309E-2,6.893722057E0,7.099504948E0
9.223862200E-1,-2.632104978E-2,6.908079147E0,7.106683254E0
9.247972620E-1,-7.178467698E-3,6.908079147E0,7.111468792E0
9.272082510E-1,-9.571290575E-3,6.898507595E0,7.128218651E0
9.296192930E-1,0.000000000E0,6.888936520E0,7.144968510E0
9.320302820E-1,-7.178467698E-3,6.886543751E0,7.156932354E0
9.344413240E-1,-1.435693540E-2,6.912864685E0,7.180860519E0
9.368523140E-1,-2.153540403E-2,6.929614544E0,7.176074982E0
9.392633550E-1,-3.349951655E-2,6.922435760E0,7.173682213E0
9.416743450E-1,-5.982056633E-2,6.958328247E0,7.161718369E0
9.440853870E-1,-8.135596663E-2,6.984649181E0,7.161718369E0
9.464963760E-1,-1.316052526E-1,7.010970116E0,7.164111137E0
9.489073660E-1,-1.603191197E-1,7.042077065E0,7.168896675E0
9.513184070E-1,-1.962114573E-1,7.066005230E0,7.154539585E0
9.537293970E-1,-2.249253243E-1,7.101897717E0,7.144968510E0
9.561404390E-1,-2.632105052E-1,7.121040344E0,7.140182972E0
9.585514280E-1,-3.086741269E-1,7.128218651E0,7.125825882E0
9.609624700E-1,-3.373879790E-1,7.152146816E0,7.125825882E0
9.633734600E-1,-3.780659735E-1,7.156932354E0,7.128218651E0
9.657845010E-1,-4.091726840E-1,7.183253765E0,7.113861561E0
9.681954910E-1,-4.187439680E-1,7.188039303E0,7.116254330E0
9.706065320E-1,-4.307080805E-1,7.211967468E0,7.111468792E0
9.730175220E-1,-4.354937077E-1,7.214360237E0,7.092326164E0
9.754285640E-1,-4.450650215E-1,7.228717327E0,7.094718933E0
9.778395530E-1,-4.354937077E-1,7.226324558E0,7.082755089E0
9.802505430E-1,-4.283152521E-1,7.226324558E0,7.068397999E0
9.826615850E-1,-4.235295951E-1,7.211967468E0,7.051648140E0
9.850725740E-1,-4.307080805E-1,7.204789162E0,7.046862602E0
9.874836160E-1,-4.067798555E-1,7.192824841E0,7.051648140E0
9.898946050E-1,-4.019941986E-1,7.171289444E0,7.039684296E0
9.923056470E-1,-3.828516304E-1,7.173682213E0,7.037291527E0
9.947166370E-1,-3.780659735E-1,7.178467751E0,7.061219692E0
9.971276780E-1,-3.852444589E-1,7.190432072E0,7.063612461E0
9.995386680E-1,-3.708875179E-1,7.200003147E0,7.082755089E0
1.001949710E0,-3.684946895E-1,7.228717327E0,7.099504948E0
1.004360699E0,-3.708875179E-1,7.233502865E0,7.123433113E0
1.006771741E0,-3.373879790E-1,7.233502865E0,7.166503906E0
1.009182730E0,-3.373879790E-1,7.255038261E0,7.180860519E0
1.011593720E0,-3.349951804E-1,7.262216568E0,7.190432072E0
1.014004762E0,-3.326023519E-1,7.252645493E0,7.207181931E0
1.016415803E0,-3.230310678E-1,7.250252724E0,7.223931789E0
1.018826793E0,-3.110669553E-1,7.255038261E0,7.243073940E0
1.021237835E0,-3.062812984E-1,7.262216568E0,7.235895634E0
1.023648824E0,-3.110669553E-1,7.295716286E0,7.243073940E0
1.026059814E0,-3.230310678E-1,7.269395351E0,7.257431030E0
1.028470855E0,-3.182454109E-1,7.250252724E0,7.252645493E0
1.030881845E0,-3.206382394E-1,7.240681171E0,7.250252724E0
1.033292887E0,-3.134597540E-1,7.235895634E0,7.255038261E0
1.035703876E0,-2.943171859E-1,7.204789162E0,7.262216568E0
1.038114918E0,-2.991028428E-1,7.166503906E0,7.238288403E0
1.040525907E0,-3.110669553E-1,7.142575741E0,7.231110096E0
1.042936949E0,-2.823530734E-1,7.137789726E0,7.219145775E0
1.045347939E0,-2.488535494E-1,7.116254330E0,7.185646534E0
1.047758980E0,-2.177468538E-1,7.094718933E0,7.147361279E0
1.050169970E0,-1.531406492E-1,7.061219692E0,7.116254330E0
1.052581012E0,-1.316052526E-1,7.020541668E0,7.099504948E0
1.054992001E0,-1.148554832E-1,6.984649181E0,7.061219692E0
1.057402991E0,-1.100698411E-1,6.955935478E0,7.039684296E0
1.059814032E0,-1.004985496E-1,6.929614544E0,7.013363361E0
1.062225074E0,-1.172483116E-1,6.903293133E0,7.015756130E0
1.064636064E0,-1.268195957E-1,6.867401123E0,7.013363361E0
1.067047053E0,-1.172483116E-1,6.869793892E0,7.030112743E0
1.069458095E0,-1.220339537E-1,6.860222340E0,7.044469833E0
1.071869085E0,-1.004985496E-1,6.848258495E0,7.068397999E0
1.074280126E0,-6.699903309E-2,6.841079712E0,7.068397999E0
1.076691116E0,-6.699903309E-2,6.848258495E0,7.046862602E0
1.079102157E0,-5.503492057E-2,6.836294174E0,7.034898758E0
1.081513147E0,-6.939185411E-2,6.831508636E0,7.022934437E0
1.083924189E0,-7.178468257E-2,6.826723099E0,7.039684296E0
1.086335178E0,-9.571290761E-2,6.826723099E0,7.044469833E0
1.088746220E0,-1.100698411E-1,6.829115868E0,7.025327206E0
1.091157210E0,-1.339980662E-1,6.826723099E0,7.013363361E0
1.093568251E0,-1.363908947E-1,6.831508636E0,6.999006271E0
1.095979241E0,-1.603191197E-1,6.862615108E0,6.984649181E0
1.098390230E0,-1.770688742E-1,6.879364967E0,6.958328247E0
1.100801272E0,-1.842473447E-1,6.879364967E0,6.960721016E0
1.103212262E0,-2.057827413E-1,6.891329288E0,6.934400082E0
1.105623303E0,-2.344966233E-1,6.900900364E0,6.936792850E0
1.108034293E0,-2.392822653E-1,6.896114826E0,6.936792850E0
1.110445335E0,-2.488535494E-1,6.912864685E0,6.917650223E0
1.112856324E0,-2.560320199E-1,6.905686378E0,6.920042992E0
1.115267366E0,-2.536391914E-1,6.917650223E0,6.939185619E0
1.117678355E0,-2.273181528E-1,6.912864685E0,6.951149940E0
1.120089397E0,-2.368894368E-1,6.948757172E0,6.987041950E0
1.122500387E0,-2.321037948E-1,6.958328247E0,7.008577347E0
1.124911428E0,-2.177468538E-1,6.967899323E0,7.025327206E0
1.127322418E0,-2.321037948E-1,6.977470875E0,7.049255371E0
1.129733460E0,-2.392822653E-1,6.987041950E0,7.068397999E0
1.132144449E0,-2.584248483E-1,6.996613503E0,7.080362320E0
1.134555439E0,-2.871387303E-1,7.001399040E0,7.070790768E0
1.136966480E0,-2.847459018E-1,7.003791809E0,7.058826923E0
1.139377470E0,-3.062812984E-1,7.030112743E0,7.056434155E0
1.141788512E0,-3.158525825E-1,7.030112743E0,7.058826923E0
1.144199501E0,-3.086741269E-1,7.049255371E0,7.056434155E0
1.146610543E0,-3.302095234E-1,7.056434155E0,7.068397999E0
1.149021532E0,-3.110669553E-1,7.054041386E0,7.075576782E0
1.151432574E0,-3.134597540E-1,7.051648140E0,7.077969551E0
1.153843564E0,-3.134597540E-1,7.066005230E0,7.075576782E0
1.156254605E0,-2.991028428E-1,7.070790768E0,7.080362320E0
1.158665595E0,-2.727817893E-1,7.061219692E0,7.058826923E0
1.161076637E0,-2.464607358E-1,7.070790768E0,7.054041386E0
1.163487626E0,-2.273181528E-1,7.066005230E0,7.054041386E0
1.165898668E0,-2.105683982E-1,7.089933395E0,7.056434155E0
1.168309657E0,-2.225325108E-1,7.092326164E0,7.068397999E0
1.170720699E0,-2.201396823E-1,7.092326164E0,7.073183537E0
1.173131689E0,-2.129612118E-1,7.097112179E0,7.077969551E0
1.175542678E0,-2.081755698E-1,7.130611420E0,7.097112179E0
1.177953720E0,-2.009970993E-1,7.144968510E0,7.109076023E0
1.180364710E0,-1.986042857E-1,7.135396957E0,7.118647575E0
1.182775751E0,-2.057827413E-1,7.152146816E0,7.128218651E0
1.185186741E0,-2.081755698E-1,7.164111137E0,7.113861561E0
1.187597782E0,-2.081755698E-1,7.176074982E0,7.123433113E0
1.190008772E0,-2.321037948E-1,7.176074982E0,7.116254330E0
1.192419814E0,-2.512463629E-1,7.188039303E0,7.123433113E0
1.194830803E0,-2.727817893E-1,7.195217609E0,7.135396957E0
1.197241845E0,-2.895315289E-1,7.221538544E0,7.147361279E0
1.199652835E0,-3.086741269E-1,7.235895634E0,7.161718369E0
1.202063876E0,-3.373879790E-1,7.252645493E0,7.173682213E0
1.204474866E0,-3.589234054E-1,7.274180889E0,7.183253765E0
1.206885907E0,-3.732803464E-1,7.307680130E0,7.171289444E0
1.209296897E0,-4.163511395E-1,7.343572617E0,7.154539585E0
1.211707887E0,-4.474578202E-1,7.369893551E0,7.144968510E0
1.214118928E0,-5.000999570E-1,7.384250641E0,7.113861561E0
1.216529918E0,-5.575276613E-1,7.398607731E0,7.094718933E0
1.218940960E0,-6.005984545E-1,7.432106972E0,7.075576782E0
1.221351949E0,-6.628118753E-1,7.441678524E0,7.073183537E0
1.223762991E0,-6.987041831E-1,7.451249599E0,7.063612461E0
1.226173980E0,-7.226324677E-1,7.463213921E0,7.058826923E0
1.228585022E0,-7.369893789E-1,7.463213921E0,7.063612461E0
1.230996012E0,-7.561319470E-1,7.448856831E0,7.075576782E0
1.233407053E0,-7.226324677E-1,7.444071293E0,7.121040344E0
1.235818043E0,-6.795616150E-1,7.444071293E0,7.142575741E0
1.238229085E0,-6.508477330E-1,7.427321434E0,7.180860519E0
1.240640074E0,-6.125625968E-1,7.391428947E0,7.209574699E0
1.243051064E0,-5.742774606E-1,7.369893551E0,7.221538544E0
1.245462105E0,-5.168496966E-1,7.341179848E0,7.231110096E0
1.247873095E0,-4.546363056E-1,7.305287361E0,7.231110096E0
1.250284137E0,-4.019941986E-1,7.281359196E0,7.221538544E0
1.252695126E0,-3.278166950E-1,7.243073940E0,7.209574699E0
1.255106168E0,-2.895315289E-1,7.197610378E0,7.207181931E0
1.257517157E0,-2.249253243E-1,7.166503906E0,7.192824841E0
1.259928199E0,-1.651047617E-1,7.130611420E0,7.202396393E0
1.262339189E0,-1.028913707E-1,7.106683254E0,7.207181931E0
1.264750230E0,-7.178468257E-2,7.077969551E0,7.202396393E0
1.267161220E0,-6.221338734E-2,7.034898758E0,7.168896675E0
1.269572262E0,-1.914258115E-2,7.010970116E0,7.147361279E0
1.271983251E0,1.196411345E-2,6.984649181E0,7.113861561E0
1.274394293E0,5.503492057E-2,6.951149940E0,7.097112179E0
1.276805282E0,8.614161611E-2,6.920042992E0,7.049255371E0
1.279216324E0,1.100698411E-1,6.896114826E0,7.013363361E0
1.281627314E0,1.411765367E-1,6.857829571E0,6.970292568E0
1.284038303E0,1.818545163E-1,6.824330330E0,6.941578388E0
1.286449345E0,1.914258152E-1,6.821937561E0,6.912864685E0
1.288860387E0,2.009970993E-1,6.824330330E0,6.893722057E0
1.291271376E0,2.033899277E-1,6.798008919E0,6.857829571E0
1.293682366E0,2.033899277E-1,6.805187702E0,6.819544315E0
1.296093407E0,1.842473447E-1,6.809973240E0,6.774080753E0
1.298504397E0,1.268195957E-1,6.786045074E0,6.731009960E0
1.300915439E0,8.374879509E-2,6.814758778E0,6.726224422E0
1.303326428E0,2.392822644E-3,6.841079712E0,6.728617191E0
1.305737470E0,-4.785645381E-2,6.855436802E0,6.747759819E0
1.308148460E0,-1.052841991E-1,6.884150982E0,6.776473522E0
1.310559501E0,-1.555334777E-1,6.884150982E0,6.821937561E0
1.312970491E0,-1.962114573E-1,6.920042992E0,6.800402164E0
1.315381532E0,-2.009970993E-1,6.960721016E0,6.809973240E0
1.317792522E0,-2.201396823E-1,6.958328247E0,6.826723099E0
1.320203564E0,-2.488535494E-1,6.975078106E0,6.841079712E0
1.322614553E0,-2.656033039E-1,6.982256413E0,6.865008354E0
1.325025543E0,-2.775674164E-1,6.977470875E0,6.888936520E0
1.327436585E0,-2.943171859E-1,7.001399040E0,6.908079147E0
1.329847574E0,-2.967100143E-1,7.015756130E0,6.905686378E0
1.332258616E0,-2.823530734E-1,6.987041950E0,6.915257454E0
1.334669605E0,-3.014956415E-1,6.994220734E0,6.924828529E0
1.337080647E0,-2.943171859E-1,6.999006271E0,6.932007313E0
1.339491637E0,-2.775674164E-1,6.999006271E0,6.927221775E0
1.341902678E0,-2.775674164E-1,6.982256413E0,6.939185619E0
1.344313668E0,-2.512463629E-1,6.967899323E0,6.967899323E0
1.346724710E0,-2.201396823E-1,6.941578388E0,6.963113785E0
1.349135699E0,-1.842473447E-1,6.929614544E0,6.967899323E0
1.351546741E0,-1.555334777E-1,6.924828529E0,6.963113785E0
1.353957730E0,-1.459621787E-1,6.917650223E0,6.967899323E0
1.356368772E0,-1.268195957E-1,6.920042992E0,6.975078106E0
1.358779762E0,-9.810572863E-2,6.924828529E0,6.984649181E0
1.361190803E0,-9.810572863E-2,6.922435760E0,7.003791809E0
1.363601793E0,-7.657032460E-2,6.893722057E0,6.999006271E0
1.366012782E0,-6.221338734E-2,6.886543751E0,6.999006271E0
1.368423824E0,-3.828516230E-2,6.900900364E0,6.987041950E0
1.370834814E0,-9.571290575E-3,6.920042992E0,6.963113785E0
1.373245855E0,-2.871387079E-2,6.939185619E0,6.936792850E0
1.375656845E0,-1.196411345E-2,6.948757172E0,6.943971157E0
1.378067887E0,-3.589234129E-2,6.948757172E0,6.953542709E0
1.380478876E0,-5.742774159E-2,6.960721016E0,6.955935478E0
1.382889918E0,-7.896314561E-2,6.967899323E0,6.965506554E0
1.385300907E0,-9.810572863E-2,6.991827965E0,6.982256413E0
1.387711949E0,-1.292124242E-1,7.022934437E0,6.989434719E0
1.390122939E0,-1.507478207E-1,7.054041386E0,6.994220734E0
1.392533928E0,-1.746760458E-1,7.068397999E0,6.994220734E0
1.394944970E0,-2.177468538E-1,7.111468792E0,6.991827965E0
1.397355960E0,-2.679961324E-1,7.116254330E0,6.996613503E0
1.399767001E0,-3.206382394E-1,7.135396957E0,6.994220734E0
1.402177991E0,-3.541377485E-1,7.166503906E0,7.003791809E0
1.404589032E0,-3.924229145E-1,7.183253765E0,7.030112743E0
1.407000022E0,-4.211367965E-1,7.214360237E0,7.039684296E0
1.409411064E0,-4.211367965E-1,7.235895634E0,7.058826923E0
1.411822053E0,-4.331009090E-1,7.228717327E0,7.068397999E0
1.414233095E0,-4.331009090E-1,7.240681171E0,7.092326164E0
1.416644085E0,-4.331009090E-1,7.269395351E0,7.123433113E0
1.419055126E0,-4.498506486E-1,7.269395351E0,7.147361279E0
1.421466116E0,-4.402793646E-1,7.259823799E0,7.176074982E0
1.423877157E0,-4.211367965E-1,7.255038261E0,7.202396393E0
1.426288147E0,-4.187439680E-1,7.252645493E0,7.223931789E0
1.428699189E0,-3.996013701E-1,7.252645493E0,7.233502865E0
1.431110178E0,-3.876372576E-1,7.243073940E0,7.262216568E0
1.433521168E0,-3.780659735E-1,7.250252724E0,7.281359196E0
1.435932210E0,-3.637090325E-1,7.245467186E0,7.317251682E0
1.438343199E0,-3.421736360E-1,7.238288403E0,7.343572617E0
1.440754241E0,-3.254238665E-1,7.226324558E0,7.357929707E0
1.443165230E0,-3.182454109E-1,7.233502865E0,7.357929707E0
1.445576272E0,-2.871387303E-1,7.240681171E0,7.367500782E0
1.447987262E0,-2.943171859E-1,7.233502865E0,7.372286797E0
1.450398303E0,-2.632105052E-1,7.233502865E0,7.355536938E0
1.452809293E0,-2.249253243E-1,7.245467186E0,7.336394310E0
1.455220335E0,-2.009970993E-1,7.226324558E0,7.302894592E0
1.457631324E0,-1.555334777E-1,7.200003147E0,7.283751965E0
1.460042366E0,-1.292124242E-1,7.149754047E0,7.267002583E0
1.462453355E0,-9.810572863E-2,7.140182972E0,7.264609337E0
1.464864397E0,-6.939185411E-2,7.123433113E0,7.257431030E0
1.467275387E0,-2.392822690E-2,7.089933395E0,7.216753006E0
1.469686428E0,9.571290575E-3,7.039684296E0,7.164111137E0
1.472097418E0,1.674975827E-2,7.025327206E0,7.111468792E0
1.474508407E0,2.632104978E-2,6.972685337E0,7.058826923E0
1.476919449E0,4.785645381E-2,6.953542709E0,7.025327206E0
1.479330439E0,4.785645381E-2,6.920042992E0,6.984649181E0
1.481741480E0,5.264209956E-2,6.896114826E0,6.948757172E0
1.484152470E0,4.785645381E-2,6.896114826E0,6.912864685E0
1.486563512E0,3.110669367E-2,6.869793892E0,6.881757736E0
1.488974501E0,9.571290575E-3,6.869793892E0,6.876972198E0
1.491385543E0,-2.392822644E-3,6.874579430E0,6.872186661E0
1.493796532E0,-1.674975827E-2,6.867401123E0,6.872186661E0
1.496207574E0,-3.349951655E-2,6.872186661E0,6.896114826E0
1.498618564E0,-5.503492057E-2,6.884150982E0,6.900900364E0
1.501029605E0,-8.853443712E-2,6.891329288E0,6.903293133E0
1.503440595E0,-1.004985496E-1,6.917650223E0,6.896114826E0
1.505851585E0,-9.571290761E-2,6.927221775E0,6.893722057E0
1.508262626E0,-1.172483116E-1,6.943971157E0,6.934400082E0
1.510673616E0,-1.363908947E-1,6.953542709E0,6.967899323E0
1.513084657E0,-1.579262912E-1,6.958328247E0,7.022934437E0
1.515495647E0,-1.818545163E-1,6.972685337E0,7.066005230E0
1.517906689E0,-2.009970993E-1,6.989434719E0,7.092326164E0
1.520317678E0,-2.249253243E-1,6.999006271E0,7.116254330E0
1.522728720E0,-2.368894368E-1,7.020541668E0,7.140182972E0
1.525139710E0,-2.321037948E-1,7.034898758E0,7.154539585E0
1.527550751E0,-2.584248483E-1,7.042077065E0,7.173682213E0
1.529961741E0,-2.656033039E-1,7.042077065E0,7.204789162E0
1.532372782E0,-2.656033039E-1,7.066005230E0,7.228717327E0
1.534783772E0,-2.775674164E-1,7.087540627E0,7.245467186E0
1.537194814E0,-3.086741269E-1,7.087540627E0,7.235895634E0
1.539605803E0,-2.991028428E-1,7.087540627E0,7.228717327E0
1.542016793E0,-3.182454109E-1,7.101897717E0,7.221538544E0
1.544427835E0,-3.302095234E-1,7.109076023E0,7.211967468E0
1.546838824E0,-3.469592929E-1,7.118647575E0,7.207181931E0
1.549249866E0,-3.661018610E-1,7.118647575E0,7.195217609E0
1.551660855E0,-3.589234054E-1,7.111468792E0,7.188039303E0
1.554071897E0,-3.421736360E-1,7.106683254E0,7.183253765E0
1.556482887E0,-3.278166950E-1,7.092326164E0,7.192824841E0
1.558893928E0,-2.847459018E-1,7.054041386E0,7.197610378E0
1.561304918E0,-2.392822653E-1,7.051648140E0,7.207181931E0
1.563715960E0,-2.129612118E-1,7.032505512E0,7.216753006E0
1.566126949E0,-1.674975902E-1,7.008577347E0,7.231110096E0
1.568537991E0,-1.339980662E-1,7.015756130E0,7.247859955E0
1.570948980E0,-1.004985496E-1,6.994220734E0,7.240681171E0
1.573359970E0,-7.896314561E-2,6.977470875E0,7.233502865E0
1.575771012E0,-6.699903309E-2,6.963113785E0,7.226324558E0
1.578182001E0,-4.067798331E-2,6.943971157E0,7.216753006E0
1.580593043E0,-4.307080805E-2,6.939185619E0,7.185646534E0
1.583004032E0,-4.785645381E-2,6.951149940E0,7.147361279E0
1.585415074E0,-6.221338734E-2,6.934400082E0,7.109076023E0
1.587826064E0,-7.657032460E-2,6.941578388E0,7.080362320E0
1.590237105E0,-8.135596663E-2,6.951149940E0,7.051648140E0
1.592648095E0,-1.076770201E-1,6.953542709E0,7.013363361E0
1.595059137E0,-1.268195957E-1,6.982256413E0,6.984649181E0
1.597470126E0,-1.651047617E-1,6.979863644E0,6.975078106E0
1.599881168E0,-2.033899277E-1,7.013363361E0,6.996613503E0
1.602292157E0,-2.225325108E-1,7.018148899E0,7.013363361E0
1.604703199E0,-2.344966233E-1,7.044469833E0,7.013363361E0
1.607114189E0,-2.632105052E-1,7.058826923E0,7.018148899E0
1.609525230E0,-2.919243574E-1,7.082755089E0,7.034898758E0
1.611936220E0,-3.014956415E-1,7.111468792E0,7.046862602E0
1.614347262E0,-3.038884699E-1,7.116254330E0,7.068397999E0
1.616758251E0,-3.182454109E-1,7.123433113E0,7.094718933E0
1.619169241E0,-3.110669553E-1,7.137789726E0,7.130611420E0
1.621580282E0,-3.110669553E-1,7.133004189E0,7.161718369E0
1.623991272E0,-3.038884699E-1,7.133004189E0,7.180860519E0
1.626402314E0,-2.991028428E-1,7.142575741E0,7.197610378E0
1.628813303E0,-3.110669553E-1,7.135396957E0,7.209574699E0
1.631224345E0,-2.823530734E-1,7.133004189E0,7.226324558E0
1.633635335E0,-2.799602449E-1,7.152146816E0,7.233502865E0
1.636046376E0,-2.751746178E-1,7.133004189E0,7.226324558E0
1.638457366E0,-2.656033039E-1,7.121040344E0,7.207181931E0
1.640868407E0,-2.440679073E-1,7.101897717E0,7.202396393E0
1.643279397E0,-2.584248483E-1,7.094718933E0,7.185646534E0
1.645690439E0,-2.608176768E-1,7.089933395E0,7.180860519E0
1.648101428E0,-2.775674164E-1,7.068397999E0,7.166503906E0
1.650512470E0,-2.679961324E-1,7.070790768E0,7.140182972E0
1.652923460E0,-2.679961324E-1,7.049255371E0,7.109076023E0
1.655334449E0,-2.847459018E-1,7.037291527E0,7.077969551E0
1.657745491E0,-3.086741269E-1,7.020541668E0,7.058826923E0
1.660156480E0,-3.230310678E-1,7.008577347E0,7.037291527E0
1.662567522E0,-3.421736360E-1,6.965506554E0,7.022934437E0
1.664978512E0,-3.469592929E-1,6.965506554E0,6.999006271E0
1.667389553E0,-3.517449200E-1,6.943971157E0,6.996613503E0
1.669800543E0,-3.637090325E-1,6.936792850E0,7.003791809E0
1.672211585E0,-3.445664644E-1,6.917650223E0,7.001399040E0
1.674622574E0,-3.349951804E-1,6.924828529E0,7.001399040E0
1.677033616E0,-3.086741269E-1,6.910471916E0,6.994220734E0
1.679444605E0,-2.608176768E-1,6.917650223E0,7.003791809E0
1.681855647E0,-2.560320199E-1,6.922435760E0,7.003791809E0
1.684266637E0,-2.321037948E-1,6.910471916E0,7.010970116E0
1.686677626E0,-2.081755698E-1,6.905686378E0,7.027719975E0
1.689088668E0,-2.057827413E-1,6.908079147E0,7.046862602E0
1.691499710E0,-1.938186288E-1,6.924828529E0,7.025327206E0
1.693910699E0,-1.698904037E-1,6.924828529E0,7.032505512E0
1.696321689E0,-1.603191197E-1,6.924828529E0,7.058826923E0
1.698732730E0,-1.531406492E-1,6.939185619E0,7.085147858E0
1.701143720E0,-1.603191197E-1,6.941578388E0,7.113861561E0
1.703554762E0,-1.890329868E-1,6.927221775E0,7.128218651E0
1.705965751E0,-2.033899277E-1,6.943971157E0,7.130611420E0
1.708376793E0,-2.033899277E-1,6.965506554E0,7.147361279E0
1.710787782E0,-2.129612118E-1,6.987041950E0,7.147361279E0
1.713198824E0,-2.344966233E-1,7.030112743E0,7.137789726E0
1.715609814E0,-2.416750938E-1,7.056434155E0,7.154539585E0
1.718020855E0,-2.775674164E-1,7.042077065E0,7.168896675E0
1.720431845E0,-2.847459018E-1,7.046862602E0,7.171289444E0
1.722842835E0,-2.967100143E-1,7.063612461E0,7.190432072E0
1.725253876E0,-3.062812984E-1,7.085147858E0,7.202396393E0
1.727664866E0,-3.206382394E-1,7.087540627E0,7.209574699E0
1.730075907E0,-3.182454109E-1,7.104290485E0,7.221538544E0
1.732486897E0,-3.086741269E-1,7.092326164E0,7.238288403E0
1.734897939E0,-3.062812984E-1,7.089933395E0,7.255038261E0
1.737308928E0,-2.967100143E-1,7.089933395E0,7.267002583E0
1.739719970E0,-2.871387303E-1,7.077969551E0,7.255038261E0
1.742130960E0,-2.943171859E-1,7.075576782E0,7.264609337E0
1.744542001E0,-3.062812984E-1,7.089933395E0,7.264609337E0
1.746952991E0,-2.943171859E-1,7.101897717E0,7.245467186E0
1.749364032E0,-2.871387303E-1,7.082755089E0,7.247859955E0
1.751775022E0,-2.679961324E-1,7.068397999E0,7.223931789E0
1.754186064E0,-2.368894368E-1,7.051648140E0,7.209574699E0
1.756597053E0,-2.440679073E-1,7.058826923E0,7.190432072E0
1.759008043E0,-2.416750938E-1,7.054041386E0,7.211967468E0
1.761419085E0,-2.129612118E-1,7.058826923E0,7.216753006E0
1.763830074E0,-2.153540403E-1,7.034898758E0,7.211967468E0
1.766241116E0,-1.986042857E-1,7.018148899E0,7.204789162E0
1.768652105E0,-1.938186288E-1,7.010970116E0,7.195217609E0
1.771063147E0,-1.794617027E-1,7.010970116E0,7.178467751E0
1.773474137E0,-1.842473447E-1,7.008577347E0,7.166503906E0
1.775885178E0,-1.794617027E-1,6.984649181E0,7.166503906E0
1.778296168E0,-1.914258152E-1,6.975078106E0,7.164111137E0
1.780707210E0,-2.129612118E-1,6.965506554E0,7.159325123E0
1.783118199E0,-2.153540403E-1,6.984649181E0,7.142575741E0
1.785529241E0,-2.440679073E-1,6.977470875E0,7.101897717E0
1.787940230E0,-2.775674164E-1,6.975078106E0,7.082755089E0
1.790351272E0,-2.919243574E-1,6.984649181E0,7.051648140E0
1.792762262E0,-3.110669553E-1,6.979863644E0,7.025327206E0
1.795173251E0,-3.086741269E-1,6.958328247E0,7.010970116E0
1.797584293E0,-3.278166950E-1,6.970292568E0,6.991827965E0
1.799995282E0,-3.421736360E-1,6.982256413E0,6.963113785E0
1.802406324E0,-3.445664644E-1,6.967899323E0,6.951149940E0
1.804817314E0,-3.517449200E-1,6.965506554E0,6.951149940E0
1.807228355E0,-3.469592929E-1,6.960721016E0,6.965506554E0
1.809639345E0,-3.326023519E-1,6.965506554E0,6.977470875E0
1.812050387E0,-2.967100143E-1,6.958328247E0,7.001399040E0
1.814461376E0,-2.751746178E-1,6.939185619E0,7.032505512E0
1.816872418E0,-2.416750938E-1,6.943971157E0,7.087540627E0
1.819283407E0,-2.225325108E-1,6.932007313E0,7.125825882E0
1.821694449E0,-1.890329868E-1,6.917650223E0,7.161718369E0
1.824105439E0,-1.674975902E-1,6.908079147E0,7.207181931E0
1.826516480E0,-1.411765367E-1,6.905686378E0,7.233502865E0
1.828927470E0,-1.268195957E-1,6.936792850E0,7.271788120E0
1.831338460E0,-1.196411327E-1,6.943971157E0,7.283751965E0
1.833749501E0,-1.435693651E-1,6.934400082E0,7.288537979E0
1.836160491E0,-1.722832322E-1,6.939185619E0,7.274180889E0
1.838571532E0,-1.818545163E-1,6.955935478E0,7.274180889E0
1.840982522E0,-2.009970993E-1,6.946363926E0,7.281359196E0
1.843393564E0,-2.273181528E-1,6.941578388E0,7.278966427E0
1.845804553E0,-2.416750938E-1,6.946363926E0,7.264609337E0
1.848215595E0,-2.871387303E-1,6.936792850E0,7.255038261E0
1.850626585E0,-3.110669553E-1,6.924828529E0,7.252645493E0
1.853037626E0,-3.134597540E-1,6.908079147E0,7.250252724E0
1.855448616E0,-3.182454109E-1,6.910471916E0,7.243073940E0
1.857859657E0,-3.278166950E-1,6.900900364E0,7.223931789E0
1.860270647E0,-3.182454109E-1,6.898507595E0,7.211967468E0
1.862681689E0,-2.991028428E-1,6.891329288E0,7.211967468E0
1.865092678E0,-2.967100143E-1,6.879364967E0,7.219145775E0
1.867503668E0,-2.823530734E-1,6.862615108E0,7.221538544E0
1.869914710E0,-2.871387303E-1,6.857829571E0,7.216753006E0
1.872325699E0,-2.775674164E-1,6.843472958E0,7.221538544E0
1.874736741E0,-2.464607358E-1,6.821937561E0,7.202396393E0
1.877147730E0,-2.392822653E-1,6.802794933E0,7.173682213E0
1.879558772E0,-2.225325108E-1,6.793223381E0,7.161718369E0
1.881969762E0,-2.081755698E-1,6.800402164E0,7.156932354E0
1.884380803E0,-1.818545163E-1,6.778866768E0,7.156932354E0
1.886791793E0,-1.674975902E-1,6.776473522E0,7.147361279E0
1.889202835E0,-1.555334777E-1,6.778866768E0,7.149754047E0
1.891613824E0,-1.459621787E-1,6.781259537E0,7.159325123E0
1.894024866E0,-1.483550072E-1,6.774080753E0,7.171289444E0
1.896435855E0,-1.435693651E-1,6.781259537E0,7.176074982E0
1.898846845E0,-1.292124242E-1,6.795616150E0,7.188039303E0
1.901257887E0,-1.483550072E-1,6.793223381E0,7.192824841E0
1.903668876E0,-1.579262912E-1,6.802794933E0,7.200003147E0
1.906079918E0,-1.674975902E-1,6.807580471E0,7.204789162E0
1.908490907E0,-2.009970993E-1,6.824330330E0,7.211967468E0
1.910901949E0,-2.273181528E-1,6.836294174E0,7.211967468E0
1.913312939E0,-2.201396823E-1,6.857829571E0,7.204789162E0
1.915723980E0,-2.249253243E-1,6.884150982E0,7.202396393E0
1.918134970E0,-2.344966233E-1,6.912864685E0,7.211967468E0
1.920546012E0,-2.536391914E-1,6.934400082E0,7.202396393E0
1.922957001E0,-2.584248483E-1,6.946363926E0,7.221538544E0
1.925368043E0,-2.703889608E-1,6.958328247E0,7.247859955E0
1.927779032E0,-2.967100143E-1,6.975078106E0,7.264609337E0
1.930190022E0,-3.038884699E-1,6.977470875E0,7.262216568E0
1.932601064E0,-3.158525825E-1,7.003791809E0,7.250252724E0
1.935012053E0,-3.278166950E-1,7.027719975E0,7.255038261E0
1.937423095E0,-3.326023519E-1,7.020541668E0,7.235895634E0
1.939834085E0,-3.326023519E-1,7.025327206E0,7.195217609E0
1.942245126E0,-3.469592929E-1,7.022934437E0,7.173682213E0
1.944656116E0,-3.589234054E-1,7.034898758E0,7.164111137E0
1.947067157E0,-3.972085714E-1,7.015756130E0,7.176074982E0
1.949478147E0,-4.187439680E-1,6.987041950E0,7.171289444E0
1.951889189E0,-4.259224236E-1,6.972685337E0,7.190432072E0
1.954300178E0,-4.354937077E-1,6.953542709E0,7.223931789E0
1.956711220E0,-4.091726840E-1,6.965506554E0,7.216753006E0
1.959122210E0,-3.756731451E-1,6.982256413E0,7.211967468E0
1.961533251E0,-3.589234054E-1,6.977470875E0,7.228717327E0
1.963944241E0,-3.254238665E-1,6.948757172E0,7.250252724E0
1.966355230E0,-2.943171859E-1,6.951149940E0,7.278966427E0
1.968766272E0,-2.632105052E-1,6.922435760E0,7.324429989E0
1.971177262E0,-2.177468538E-1,6.898507595E0,7.360322475E0
1.973588303E0,-1.651047617E-1,6.903293133E0,7.374679565E0
1.975999293E0,-1.148554832E-1,6.886543751E0,7.386643410E0
1.978410335E0,-6.939185411E-2,6.853044033E0,7.410571575E0
1.980821324E0,-3.110669367E-2,6.841079712E0,7.420143127E0
1.983232366E0,-7.178467698E-3,6.833901405E0,7.432106972E0
1.985643355E0,1.674975827E-2,6.824330330E0,7.427321434E0
1.988054397E0,3.828516230E-2,6.812366009E0,7.422535896E0
1.990465387E0,4.067798331E-2,6.814758778E0,7.408178806E0
1.992876428E0,3.828516230E-2,6.817151546E0,7.389036179E0
1.995287418E0,2.392822690E-2,6.812366009E0,7.393822193E0
1.997698460E0,1.196411345E-2,6.817151546E0,7.381857872E0
2.000109449E0,-2.632104978E-2,6.817151546E0,7.391428947E0
2.002520491E0,-6.221338734E-2,6.836294174E0,7.401000500E0
2.004931480E0,-8.853443712E-2,6.843472958E0,7.401000500E0
2.007342470E0,-1.124626622E-1,6.865008354E0,7.398607731E0
2.009753512E0,-1.411765367E-1,6.874579430E0,7.396214962E0
2.012164501E0,-1.555334777E-1,6.893722057E0,7.403393269E0
2.014575543E0,-1.866401732E-1,6.915257454E0,7.412964344E0
2.016986532E0,-2.009970993E-1,6.936792850E0,7.417750359E0
2.019397574E0,-2.225325108E-1,6.951149940E0,7.422535896E0
2.021808564E0,-2.512463629E-1,6.979863644E0,7.420143127E0
2.024219605E0,-2.847459018E-1,6.996613503E0,7.410571575E0
2.026630595E0,-2.943171859E-1,7.015756130E0,7.412964344E0
2.029041637E0,-3.086741269E-1,7.022934437E0,7.403393269E0
2.031452626E0,-3.062812984E-1,7.015756130E0,7.386643410E0
2.033863668E0,-3.086741269E-1,7.013363361E0,7.360322475E0
2.036274657E0,-3.302095234E-1,7.006184578E0,7.350750923E0
2.038685647E0,-3.134597540E-1,6.991827965E0,7.362715244E0
2.041096689E0,-3.302095234E-1,7.001399040E0,7.357929707E0
2.043507678E0,-3.326023519E-1,6.975078106E0,7.341179848E0
2.045918720E0,-3.038884699E-1,6.967899323E0,7.334001541E0
2.048329710E0,-2.967100143E-1,6.955935478E0,7.300501823E0
2.050740751E0,-2.608176768E-1,6.939185619E0,7.286144733E0
2.053151741E0,-2.392822653E-1,6.903293133E0,7.288537979E0
2.055562782E0,-2.177468538E-1,6.888936520E0,7.264609337E0
2.057973772E0,-2.033899277E-1,6.881757736E0,7.264609337E0
2.060384814E0,-1.938186288E-1,6.855436802E0,7.257431030E0
2.062795803E0,-1.770688742E-1,6.833901405E0,7.250252724E0
2.065206845E0,-1.579262912E-1,6.824330330E0,7.240681171E0
2.067617835E0,-1.411765367E-1,6.807580471E0,7.226324558E0
2.070028876E0,-1.387837082E-1,6.776473522E0,7.207181931E0
2.072439866E0,-1.124626622E-1,6.745367050E0,7.200003147E0
2.074850907E0,-8.614161611E-2,6.731009960E0,7.195217609E0
2.077261897E0,-6.699903309E-2,6.711867332E0,7.202396393E0
2.079672887E0,-5.742774159E-2,6.685546398E0,7.190432072E0
2.082083928E0,-6.939185411E-2,6.668796539E0,7.166503906E0
2.084494918E0,-5.024927482E-2,6.685546398E0,7.180860519E0
2.086905960E0,-4.067798331E-2,6.685546398E0,7.190432072E0
2.089316949E0,-5.024927482E-2,6.675975323E0,7.204789162E0
2.091727991E0,-6.939185411E-2,6.678368092E0,7.226324558E0
2.094138980E0,-5.264209956E-2,6.695117950E0,7.250252724E0
2.096550022E0,-5.024927482E-2,6.699903488E0,7.269395351E0
2.098961012E0,-4.546362907E-2,6.702296257E0,7.302894592E0
2.101372053E0,-3.349951655E-2,6.692724705E0,7.338787079E0
2.103783043E0,-3.110669367E-2,6.692724705E0,7.372286797E0
2.106194032E0,-4.307080805E-2,6.683153629E0,7.365108013E0
2.108605074E0,-3.828516230E-2,6.668796539E0,7.391428947E0
2.111016064E0,-3.828516230E-2,6.649653912E0,7.412964344E0
2.113427105E0,-4.067798331E-2,6.630511761E0,7.417750359E0
2.115838095E0,-3.589234129E-2,6.623332977E0,7.467999458E0
2.118249137E0,-2.392822690E-2,6.625725746E0,7.460821152E0
2.120660126E0,-2.153540403E-2,6.620940208E0,7.436892986E0
2.123071168E0,-1.914258115E-2,6.608976364E0,7.393822193E0
2.125482157E0,-3.828516230E-2,6.606583118E0,7.343572617E0
2.127893199E0,-2.392822690E-2,6.587440968E0,7.298109055E0
2.130304189E0,-5.503492057E-2,6.568298340E0,7.259823799E0
2.132715230E0,-7.657032460E-2,6.537191391E0,7.231110096E0
2.135126220E0,-9.332008660E-2,6.513263226E0,7.185646534E0
2.137537210E0,-1.387837082E-1,6.496513367E0,7.135396957E0
2.139948251E0,-1.962114573E-1,6.474977970E0,7.085147858E0
2.142359241E0,-2.153540403E-1,6.455835342E0,6.996613503E0
2.144770282E0,-2.440679073E-1,6.429514408E0,6.910471916E0
2.147181272E0,-2.536391914E-1,6.424728870E0,6.838686943E0
2.149592314E0,-2.536391914E-1,6.419943333E0,6.740581512E0
2.152003303E0,-2.560320199E-1,6.398407936E0,6.644868374E0
2.154414345E0,-2.847459018E-1,6.391229153E0,6.527620316E0
2.156825335E0,-3.182454109E-1,6.369693756E0,6.364908218E0
2.159236376E0,-3.613162339E-1,6.376872540E0,6.161518097E0
2.161647366E0,-4.354937077E-1,6.376872540E0,5.960521221E0
2.164058407E0,-5.144568682E-1,6.379265308E0,5.836094379E0
2.166469397E0,-5.647061467E-1,6.367300987E0,5.737988472E0
2.168880439E0,-6.173482537E-1,6.307480335E0,5.711667538E0
2.171291428E0,-6.556333899E-1,6.233303070E0,5.773880959E0
2.173702470E0,-6.340979934E-1,6.123233318E0,5.879165173E0
2.176113460E0,-6.412764788E-1,6.027520180E0,6.034698486E0
2.178524449E0,-6.556333899E-1,5.855237007E0,6.281159401E0
2.180935491E0,-5.718846321E-1,5.740381718E0,6.463014126E0
2.183346480E0,-5.120640397E-1,5.649454117E0,6.601797581E0
2.185757522E0,-4.259224236E-1,5.584847927E0,6.695117950E0
2.188168512E0,-3.421736360E-1,5.472385406E0,6.831508636E0
2.190579553E0,-2.392822653E-1,5.395814896E0,6.987041950E0
2.192990543E0,-1.339980662E-1,5.319244862E0,7.180860519E0
2.195401585E0,-4.546362907E-2,5.230710506E0,7.393822193E0
2.197812574E0,-4.785645287E-3,5.058426857E0,7.738388538E0
2.200223616E0,-7.178467698E-3,4.804787636E0,8.104490280E0
2.202634605E0,-1.387837082E-1,4.311866283E0,8.585447311E0
2.205045647E0,-1.363908947E-1,4.036691666E0,9.217152596E0
2.207456637E0,-1.962114573E-1,3.936193228E0,9.427721024E0
2.209867626E0,-3.086741269E-1,3.871587038E0,9.363115311E0
2.212278668E0,-3.996013701E-1,3.818944931E0,9.253045082E0
2.214689657E0,-4.498506486E-1,3.783052683E0,9.123832703E0
2.217100699E0,-4.833501875E-1,3.751945972E0,8.975478172E0
2.219511689E0,-4.833501875E-1,3.771088600E0,8.784051895E0
2.221922730E0,-5.168496966E-1,3.775874138E0,8.606983185E0
2.224333720E0,-5.862415433E-1,3.756731510E0,8.439485550E0
2.226744762E0,-6.508477330E-1,3.716053486E0,8.240880966E0
2.229155751E0,-7.058826685E-1,3.651447296E0,7.920242786E0
2.231566793E0,-7.441678643E-1,3.471985579E0,7.357929707E0
2.233977782E0,-6.388836503E-1,3.110669374E0,6.955935478E0
2.236388824E0,-2.273181528E-1,2.213361025E0,6.905686378E0
2.238799814E0,-1.052841991E-1,1.861616015E0,6.369693756E0
2.241210803E0,-5.742774159E-2,1.765903115E0,6.128018856E0
2.243621845E0,-5.742774159E-2,1.720439434E0,6.099305153E0
2.246032835E0,-4.785645381E-2,1.710868239E0,6.116054535E0
2.248443876E0,-5.982056633E-2,1.686939955E0,6.163911343E0
2.250854866E0,-5.264209956E-2,1.665404558E0,6.216553211E0
2.253265907E0,-5.982056633E-2,1.670190215E0,6.297909260E0
2.255676897E0,-7.178468257E-2,1.653440475E0,6.369693756E0
2.258087939E0,-8.614161611E-2,1.631905079E0,6.451049805E0
2.260498928E0,-8.374879509E-2,1.612762451E0,6.534798622E0
2.262909970E0,-7.657032460E-2,1.622333765E0,6.628118515E0
2.265320960E0,-1.028913707E-1,1.610369682E0,6.740581512E0
2.267732001E0,-1.268195957E-1,1.586441398E0,6.829115868E0
2.270142991E0,-1.435693651E-1,1.567298889E0,6.943971157E0
2.272554032E0,-1.555334777E-1,1.550549030E0,7.046862602E0
2.274965022E0,-1.483550072E-1,1.545763373E0,7.159325123E0
2.277376012E0,-1.651047617E-1,1.514656782E0,7.267002583E0
2.279787053E0,-1.914258152E-1,1.485942841E0,7.379465103E0
2.282198043E0,-2.057827413E-1,1.457229018E0,7.470392227E0
2.284609085E0,-2.153540403E-1,1.423729420E0,7.568498135E0
2.287020074E0,-2.416750938E-1,1.387837172E0,7.671389580E0
2.289431116E0,-2.584248483E-1,1.344766378E0,7.776673794E0
2.291842105E0,-2.751746178E-1,1.313659668E0,7.879564762E0
2.294253147E0,-3.086741269E-1,1.268195987E0,7.975277901E0
2.296664137E0,-3.110669553E-1,1.239482164E0,8.078168869E0
2.299075178E0,-3.445664644E-1,1.186840057E0,8.183453560E0
2.301486168E0,-3.541377485E-1,1.150947690E0,8.264809608E0
2.303897210E0,-3.661018610E-1,1.100698471E0,8.343772888E0
2.306308199E0,-3.876372576E-1,1.060020447E0,8.429914474E0
2.308719241E0,-4.067798555E-1,1.000199914E0,8.501698494E0
2.311130230E0,-4.331009090E-1,9.403793216E-1,8.578269005E0
2.313541220E0,-4.618147612E-1,8.877372146E-1,8.645268440E0
2.315952262E0,-4.785645306E-1,8.207381964E-1,8.688339233E0
2.318363251E0,-4.953143001E-1,7.609176040E-1,8.743373871E0
2.320774293E0,-5.048855543E-1,7.010970116E-1,8.819944382E0
2.323185282E0,-5.192425251E-1,6.412764788E-1,8.882157326E0
2.325596324E0,-5.407779217E-1,6.029912829E-1,8.937192917E0
2.328007314E0,-5.647061467E-1,5.335994363E-1,9.004191399E0
2.330418355E0,-5.742774606E-1,4.761717021E-1,9.073583603E0
2.332829345E0,-5.910272002E-1,4.235295951E-1,9.123832703E0
2.335240387E0,-6.077769399E-1,3.589234054E-1,9.176474571E0
2.337651376E0,-6.245267391E-1,3.110669553E-1,9.236295700E0
2.340062418E0,-6.388836503E-1,2.632105052E-1,9.286544800E0
2.342473407E0,-6.580262184E-1,2.081755698E-1,9.343972206E0
2.344884449E0,-6.652047038E-1,1.603191197E-1,9.408578873E0
2.347295439E0,-6.675975323E-1,1.028913707E-1,9.461220741E0
2.349706428E0,-6.652047038E-1,6.699903309E-2,9.535398483E0
2.352117470E0,-6.747759581E-1,1.196411345E-2,9.602396965E0
2.354528460E0,-6.963114142E-1,-3.828516230E-2,9.662218094E0
2.356939501E0,-7.058826685E-1,-8.374879509E-2,9.736394882E0
2.359350491E0,-6.939185858E-1,-1.459621787E-1,9.817750931E0
2.361761532E0,-6.915257573E-1,-1.842473447E-1,9.903892517E0
2.364172522E0,-7.034898400E-1,-2.297109663E-1,9.987641335E0
2.366583564E0,-7.130611539E-1,-2.799602449E-1,1.005703354E1
2.368994553E0,-6.867401004E-1,-3.254238665E-1,1.015753174E1
2.371405595E0,-6.891329288E-1,-3.637090325E-1,1.024606609E1
2.373816585E0,-7.082754970E-1,-3.900300860E-1,1.034656525E1
2.376227626E0,-6.987041831E-1,-4.139583111E-1,1.044467068E1
2.378638616E0,-7.130611539E-1,-4.618147612E-1,1.054277611E1
2.381049605E0,-7.226324677E-1,-5.192425251E-1,1.063370419E1
2.383460647E0,-7.034898400E-1,-5.431707501E-1,1.073898792E1
2.385871637E0,-6.867401004E-1,-5.790630579E-1,1.083709335E1
2.388282678E0,-6.795616150E-1,-6.101697683E-1,1.093759251E1
2.390693668E0,-6.675975323E-1,-6.580262184E-1,1.104048347E1
2.393104710E0,-6.747759581E-1,-6.723831892E-1,1.114098263E1
2.395515699E0,-6.556333899E-1,-7.178468108E-1,1.124387360E1
2.397926741E0,-6.580262184E-1,-7.657032609E-1,1.134197903E1
2.400337730E0,-6.412764788E-1,-7.992027402E-1,1.143051338E1
2.402748772E0,-6.460621357E-1,-8.183453679E-1,1.151904774E1
2.405159762E0,-6.269195080E-1,-8.422735929E-1,1.161236858E1
2.407570803E0,-6.053841114E-1,-8.733802438E-1,1.170329571E1
2.409981793E0,-5.862415433E-1,-8.805587292E-1,1.179422283E1
2.412392835E0,-5.718846321E-1,-9.164510965E-1,1.187797165E1
2.414803824E0,-5.647061467E-1,-9.499505758E-1,1.196889877E1
2.417214866E0,-5.407779217E-1,-9.643075466E-1,1.203829098E1
2.419625855E0,-5.431707501E-1,-9.930213690E-1,1.212203979E1
2.422036845E0,-5.264210105E-1,-1.000199914E0,1.219143105E1
2.424447887E0,-4.953143001E-1,-1.012163997E0,1.225125217E1
2.426858876E0,-4.857429862E-1,-1.033699393E0,1.231825066E1
2.429269918E0,-4.833501875E-1,-1.057627559E0,1.237328625E1
2.431680907E0,-4.642075896E-1,-1.057627559E0,1.241396427E1
2.434091949E0,-4.402793646E-1,-1.074377418E0,1.245224857E1
2.436502939E0,-4.307080805E-1,-1.083948612E0,1.248814106E1
2.438913980E0,-3.996013701E-1,-1.088734269E0,1.253599739E1
2.441324970E0,-3.852444589E-1,-1.088734269E0,1.255035496E1
2.443736012E0,-3.613162339E-1,-1.093519926E0,1.255514050E1
2.446147001E0,-3.469592929E-1,-1.124626637E0,1.256949711E1
2.448558043E0,-3.206382394E-1,-1.110269666E0,1.258146191E1
2.450969032E0,-3.062812984E-1,-1.105484009E0,1.259342575E1
2.453380022E0,-3.014956415E-1,-1.098305583E0,1.259581852E1
2.455791064E0,-2.919243574E-1,-1.100698471E0,1.259581852E1
2.458202053E0,-2.727817893E-1,-1.088734269E0,1.258864021E1
2.460613095E0,-2.584248483E-1,-1.071984529E0,1.261017513E1
2.463024085E0,-2.392822653E-1,-1.057627559E0,1.261017513E1
2.465435126E0,-2.440679073E-1,-1.043270707E0,1.261496067E1
2.467846116E0,-2.440679073E-1,-1.036092162E0,1.261256790E1
2.470257157E0,-2.392822653E-1,-1.014556766E0,1.259821129E1
2.472668147E0,-2.321037948E-1,-1.000199914E0,1.259821129E1
2.475079189E0,-2.368894368E-1,-1.002592683E0,1.261256790E1
2.477490178E0,-2.416750938E-1,-9.834501147E-1,1.260778236E1
2.479901220E0,-2.321037948E-1,-9.619147182E-1,1.261256790E1
2.482312210E0,-2.392822653E-1,-9.475577474E-1,1.262692547E1
2.484723251E0,-2.440679073E-1,-9.355936646E-1,1.263888931E1
2.487134241E0,-2.488535494E-1,-9.092726111E-1,1.266042423E1
2.489545282E0,-2.488535494E-1,-8.733802438E-1,1.266760349E1
2.491956272E0,-2.416750938E-1,-8.470591903E-1,1.269153118E1
2.494367262E0,-2.536391914E-1,-8.327022791E-1,1.270828152E1
2.496778303E0,-2.416750938E-1,-8.087740541E-1,1.273220921E1
2.499189293E0,-2.679961324E-1,-7.752745152E-1,1.275135231E1
2.501600335E0,-2.799602449E-1,-7.465606928E-1,1.279442310E1
2.504011324E0,-2.991028428E-1,-7.226324677E-1,1.280160141E1
2.506422366E0,-3.158525825E-1,-6.915257573E-1,1.282552910E1
2.508833355E0,-3.278166950E-1,-6.580262184E-1,1.286142159E1
2.511244397E0,-3.469592929E-1,-6.293123364E-1,1.288774300E1
2.513655387E0,-3.708875179E-1,-5.814558864E-1,1.291884899E1
2.516066428E0,-3.852444589E-1,-5.455635786E-1,1.294756317E1
2.518477418E0,-4.067798555E-1,-5.096712112E-1,1.296191978E1
2.520888460E0,-4.307080805E-1,-4.737788737E-1,1.299063396E1
2.523299449E0,-4.307080805E-1,-4.211367965E-1,1.301934814E1
2.525710439E0,-4.546363056E-1,-3.732803464E-1,1.303131199E1
2.528121480E0,-4.761717021E-1,-3.421736360E-1,1.304088306E1
2.530532470E0,-4.809573591E-1,-2.991028428E-1,1.306241894E1
2.532943512E0,-5.072783828E-1,-2.560320199E-1,1.306959724E1
2.535354501E0,-5.407779217E-1,-2.057827413E-1,1.307916832E1
2.537765543E0,-5.718846321E-1,-1.531406492E-1,1.306720448E1
2.540176532E0,-5.862415433E-1,-1.148554832E-1,1.306720448E1
2.542587574E0,-6.125625968E-1,-5.024927482E-2,1.306959724E1
2.544998564E0,-6.293123364E-1,1.914258115E-2,1.305524063E1
2.547409605E0,-6.580262184E-1,5.742774159E-2,1.304327583E1
2.549820595E0,-6.795616150E-1,9.810572863E-2,1.302413368E1
2.552231637E0,-6.987041831E-1,1.507478207E-1,1.299781227E1
2.554642626E0,-7.106683254E-1,2.057827413E-1,1.297627735E1
2.557053668E0,-7.274180651E-1,2.584248483E-1,1.294756317E1
2.559464657E0,-7.513462901E-1,3.086741269E-1,1.292363548E1
2.561875647E0,-7.561319470E-1,3.421736360E-1,1.286859989E1
2.564286689E0,-7.704889178E-1,4.043870270E-1,1.281595802E1
2.566697678E0,-7.944171429E-1,4.450650215E-1,1.277049446E1
2.569108720E0,-7.968099117E-1,5.168496966E-1,1.271306705E1
2.571519710E0,-8.111668825E-1,5.718846321E-1,1.265803146E1
2.573930751E0,-8.231309652E-1,6.149554253E-1,1.258146191E1
2.576341741E0,-8.255237937E-1,6.460621357E-1,1.251685524E1
2.578752782E0,-8.207381964E-1,6.939185858E-1,1.244746304E1
2.581163772E0,-8.303094506E-1,7.585247755E-1,1.236850071E1
2.583574814E0,-8.398807645E-1,8.087740541E-1,1.227996540E1
2.585985803E0,-8.422735929E-1,8.470591903E-1,1.219861031E1
2.588396845E0,-8.350951076E-1,8.662018180E-1,1.211486149E1
2.590807835E0,-8.255237937E-1,9.140582681E-1,1.202871990E1
2.593218824E0,-8.063812256E-1,9.619147182E-1,1.194497108E1
2.595629866E0,-8.111668825E-1,1.004985452E0,1.186122227E1
2.598040855E0,-7.968099117E-1,1.052842021E0,1.176790142E1
2.600451897E0,-7.968099117E-1,1.079162955E0,1.169133186E1
2.602862887E0,-7.776673436E-1,1.122233868E0,1.158604717E1
2.605273928E0,-7.633104324E-1,1.146162033E0,1.151904774E1
2.607684918E0,-7.417750359E-1,1.182054400E0,1.143051338E1
2.610095960E0,-7.441678643E-1,1.220339537E0,1.134676456E1
2.612506949E0,-7.274180651E-1,1.220339537E0,1.127737331E1
2.614917991E0,-7.106683254E-1,1.268195987E0,1.121037388E1
2.617328980E0,-6.891329288E-1,1.294517040E0,1.113858986E1
2.619740022E0,-6.604190469E-1,1.304088354E0,1.108594704E1
2.622151012E0,-6.364908218E-1,1.332802176E0,1.101894855E1
2.624562053E0,-6.149554253E-1,1.354337573E0,1.096391296E1
2.626973043E0,-6.149554253E-1,1.380658627E0,1.091605663E1
2.629384032E0,-5.934200287E-1,1.371087432E0,1.086580753E1
2.631795074E0,-5.694918036E-1,1.385444283E0,1.082273674E1
2.634206116E0,-5.383850932E-1,1.426122308E0,1.077009487E1
2.636617105E0,-5.120640397E-1,1.438086390E0,1.073420238E1
2.639028095E0,-5.072783828E-1,1.433300734E0,1.069591713E1
2.641439137E0,-4.713860750E-1,1.447657704E0,1.066481018E1
2.643850126E0,-4.402793646E-1,1.428515077E0,1.062652493E1
2.646261168E0,-4.163511395E-1,1.440479279E0,1.060020447E1
2.648672157E0,-4.115654826E-1,1.433300734E0,1.058106136E1
2.651083199E0,-3.972085714E-1,1.423729420E0,1.055952644E1
2.653494189E0,-3.684946895E-1,1.430907965E0,1.054277611E1
2.655905230E0,-3.469592929E-1,1.409372568E0,1.051884842E1
2.658316220E0,-3.326023519E-1,1.383051515E0,1.048534870E1
2.660727210E0,-2.991028428E-1,1.380658627E0,1.046620655E1
2.663138251E0,-2.751746178E-1,1.373480201E0,1.045902824E1
2.665549241E0,-2.703889608E-1,1.349551916E0,1.043031406E1
2.667960282E0,-2.512463629E-1,1.318445325E0,1.040399265E1
2.670371272E0,-2.440679073E-1,1.275374413E0,1.037767220E1
2.672782314E0,-2.321037948E-1,1.237089276E0,1.037288570E1
2.675193303E0,-2.297109663E-1,1.244267821E0,1.034895802E1
2.677604345E0,-2.105683982E-1,1.203589797E0,1.031785107E1
2.680015335E0,-1.938186288E-1,1.174875975E0,1.030588722E1
2.682426376E0,-1.962114573E-1,1.138983607E0,1.029631615E1
2.684837366E0,-2.057827413E-1,1.093519926E0,1.027956581E1
2.687248407E0,-2.057827413E-1,1.045663476E0,1.026999474E1
2.689659397E0,-1.962114573E-1,1.007378340E0,1.024606609E1
2.692070439E0,-2.009970993E-1,9.571290612E-1,1.023888779E1
2.694481428E0,-2.201396823E-1,9.164510965E-1,1.023649502E1
2.696892418E0,-2.153540403E-1,8.805587292E-1,1.022692394E1
2.699303460E0,-2.033899277E-1,8.327022791E-1,1.021974564E1
2.701714449E0,-2.297109663E-1,7.824530005E-1,1.021735287E1
2.704125491E0,-2.344966233E-1,7.417750359E-1,1.022213840E1
2.706536480E0,-2.321037948E-1,6.891329288E-1,1.023170948E1
2.708947522E0,-2.416750938E-1,6.245267391E-1,1.024606609E1
2.711358512E0,-2.560320199E-1,5.718846321E-1,1.026281643E1
2.713769553E0,-2.584248483E-1,5.072783828E-1,1.027717304E1
2.716180543E0,-2.727817893E-1,4.546363056E-1,1.030588722E1
2.718591585E0,-3.062812984E-1,4.139583111E-1,1.033220863E1
2.721002574E0,-3.158525825E-1,3.637090325E-1,1.035613632E1
2.723413616E0,-3.421736360E-1,2.991028428E-1,1.040159988E1
2.725824605E0,-3.517449200E-1,2.632105052E-1,1.043270683E1
2.728235647E0,-3.780659735E-1,2.177468538E-1,1.046859932E1
2.730646637E0,-3.900300860E-1,1.722832322E-1,1.052124119E1
2.733057678E0,-4.115654826E-1,8.374879509E-2,1.059302616E1
2.735468668E0,-4.378865361E-1,2.632104978E-2,1.065045357E1
2.737879657E0,-4.546363056E-1,-1.435693540E-2,1.069830990E1
2.740290699E0,-4.785645306E-1,-5.982056633E-2,1.076770210E1
2.742701689E0,-5.000999570E-1,-1.076770201E-1,1.081555843E1
2.745112730E0,-5.168496966E-1,-1.722832322E-1,1.086820030E1
2.747523720E0,-5.431707501E-1,-2.057827413E-1,1.094237804E1
2.749934762E0,-5.575276613E-1,-2.703889608E-1,1.098544884E1
2.752345751E0,-5.742774606E-1,-3.206382394E-1,1.103809071E1
2.754756793E0,-5.910272002E-1,-3.708875179E-1,1.110030460E1
2.757167782E0,-6.005984545E-1,-4.043870270E-1,1.115055370E1
2.759578772E0,-6.221339107E-1,-4.761717021E-1,1.120319557E1
2.761989814E0,-6.508477330E-1,-5.264210105E-1,1.124626637E1
2.764400803E0,-6.556333899E-1,-5.814558864E-1,1.127976608E1
2.766811845E0,-6.699903607E-1,-6.317051649E-1,1.133480072E1
2.769222835E0,-6.843472719E-1,-6.771687865E-1,1.136830044E1
2.771633876E0,-7.010970116E-1,-7.010970116E-1,1.138026428E1
2.774044866E0,-7.178468108E-1,-7.345965505E-1,1.141376400E1
2.776455907E0,-7.250252366E-1,-7.896314859E-1,1.143051338E1
2.778866897E0,-7.345965505E-1,-8.231309652E-1,1.144487095E1
2.781277939E0,-7.345965505E-1,-8.709874153E-1,1.145922756E1
2.783688928E0,-7.345965505E-1,-9.164510965E-1,1.145444202E1
2.786099970E0,-7.537391186E-1,-9.427721500E-1,1.145683479E1
2.788510960E0,-7.345965505E-1,-9.834501147E-1,1.145922756E1
2.790922001E0,-7.393822074E-1,-1.033699393E0,1.144487095E1
2.793332991E0,-7.393822074E-1,-1.057627559E0,1.144487095E1
2.795743980E0,-7.441678643E-1,-1.081555843E0,1.143769264E1
2.798155022E0,-7.657032609E-1,-1.107876897E0,1.140419292E1
2.800566012E0,-7.489534616E-1,-1.131805062E0,1.137069321E1
2.802977053E0,-7.250252366E-1,-1.150947690E0,1.134915733E1
2.805388043E0,-7.106683254E-1,-1.170090318E0,1.133240795E1
2.807799085E0,-7.130611539E-1,-1.191625714E0,1.129651546E1
2.810210074E0,-7.202396393E-1,-1.203589797E0,1.127019501E1
2.812621116E0,-7.082754970E-1,-1.215553880E0,1.124148083E1
2.815032105E0,-7.034898400E-1,-1.239482164E0,1.120558834E1
2.817443147E0,-6.939185858E-1,-1.261017561E0,1.117448139E1
2.819854137E0,-6.723831892E-1,-1.280160069E0,1.114816093E1
2.822265178E0,-6.580262184E-1,-1.304088354E0,1.112183952E1
2.824676168E0,-6.460621357E-1,-1.311266780E0,1.111226845E1
2.827087157E0,-6.245267391E-1,-1.313659668E0,1.107876873E1
2.829498199E0,-6.245267391E-1,-1.339980721E0,1.105723381E1
2.831909189E0,-6.173482537E-1,-1.368694544E0,1.102134132E1
2.834320230E0,-6.149554253E-1,-1.375872970E0,1.099501991E1
2.836731220E0,-5.886343718E-1,-1.368694544E0,1.099023438E1
2.839142262E0,-5.647061467E-1,-1.371087432E0,1.097109222E1
2.841553251E0,-5.623133183E-1,-1.387837172E0,1.095912743E1
2.843964293E0,-5.383850932E-1,-1.380658627E0,1.093998528E1
2.846375282E0,-5.335994363E-1,-1.392622828E0,1.091127110E1
2.848786324E0,-5.120640397E-1,-1.411765337E0,1.090409279E1
2.851197314E0,-4.833501875E-1,-1.416550994E0,1.091127110E1
2.853608355E0,-4.761717021E-1,-1.423729420E0,1.091605663E1
2.856019345E0,-4.689932466E-1,-1.433300734E0,1.090887833E1
2.858430387E0,-4.642075896E-1,-1.442872047E0,1.090170002E1
2.860841376E0,-4.283152521E-1,-1.454836130E0,1.088734341E1
2.863252418E0,-4.139583111E-1,-1.445264935E0,1.088016415E1
2.865663407E0,-4.259224236E-1,-1.438086390E0,1.086820030E1
2.868074397E0,-4.091726840E-1,-1.445264935E0,1.087298584E1
2.870485439E0,-3.924229145E-1,-1.452443361E0,1.085623646E1
2.872896428E0,-3.637090325E-1,-1.438086390E0,1.083948612E1
2.875307470E0,-3.684946895E-1,-1.433300734E0,1.081795120E1
2.877718460E0,-3.493520916E-1,-1.452443361E0,1.079641533E1
2.880129501E0,-3.445664644E-1,-1.435693622E0,1.079162979E1
2.882540491E0,-3.086741269E-1,-1.421336651E0,1.077727318E1
2.884951532E0,-3.038884699E-1,-1.423729420E0,1.074616623E1
2.887362522E0,-2.967100143E-1,-1.411765337E0,1.070548820E1
2.889773564E0,-2.775674164E-1,-1.426122308E0,1.068873882E1
2.892184553E0,-2.847459018E-1,-1.428515077E0,1.066959572E1
2.894595595E0,-2.584248483E-1,-1.416550994E0,1.062413216E1
2.897006585E0,-2.464607358E-1,-1.402194023E0,1.059541893E1
2.899417626E0,-2.368894368E-1,-1.395015597E0,1.055234814E1
2.901828616E0,-2.488535494E-1,-1.383051515E0,1.051167011E1
2.904239605E0,-2.249253243E-1,-1.356730461E0,1.046381378E1
2.906650647E0,-2.177468538E-1,-1.368694544E0,1.041595650E1
2.909061637E0,-2.201396823E-1,-1.385444283E0,1.037767220E1
2.911472678E0,-2.153540403E-1,-1.363908887E0,1.031545830E1
2.913883668E0,-1.986042857E-1,-1.339980721E0,1.028195858E1
2.916294710E0,-1.986042857E-1,-1.313659668E0,1.023410225E1
2.918705699E0,-2.129612118E-1,-1.308874011E0,1.019820976E1
2.921116741E0,-1.938186288E-1,-1.294517040E0,1.015992451E1
2.923527730E0,-1.770688742E-1,-1.272981644E0,1.011685371E1
2.925938772E0,-1.651047617E-1,-1.263410330E0,1.008096218E1
2.928349762E0,-1.794617027E-1,-1.258624673E0,1.004028416E1
2.930760751E0,-1.842473447E-1,-1.234696507E0,9.999606133E0
2.933171793E0,-1.842473447E-1,-1.213161111E0,9.968499184E0
2.935582782E0,-1.986042857E-1,-1.208375454E0,9.937392235E0
2.937993824E0,-1.866401732E-1,-1.205982566E0,9.906285286E0
2.940404814E0,-1.866401732E-1,-1.210768223E0,9.875179291E0
2.942815855E0,-1.866401732E-1,-1.177268744E0,9.853643417E0
2.945226845E0,-1.866401732E-1,-1.162911773E0,9.844072342E0
2.947637887E0,-2.033899277E-1,-1.150947690E0,9.829715729E0
2.950048876E0,-2.009970993E-1,-1.136590719E0,9.803394318E0
2.952459918E0,-2.105683982E-1,-1.119840980E0,9.798608780E0
2.954870907E0,-2.249253243E-1,-1.105484009E0,9.796216011E0
2.957281949E0,-2.273181528E-1,-1.105484009E0,9.801001549E0
2.959692939E0,-2.273181528E-1,-1.081555843E0,9.803394318E0
2.962103980E0,-2.273181528E-1,-1.055234790E0,9.791430473E0
2.964514970E0,-2.416750938E-1,-1.043270707E0,9.803394318E0
2.966925960E0,-2.679961324E-1,-1.033699393E0,9.812965393E0
2.969337001E0,-2.967100143E-1,-1.014556766E0,9.815358162E0
2.971747991E0,-2.919243574E-1,-9.930213690E-1,9.822537422E0
2.974159032E0,-2.991028428E-1,-9.858429432E-1,9.827322960E0
2.976570022E0,-3.230310678E-1,-9.738788009E-1,9.836894035E0
2.978981064E0,-3.206382394E-1,-9.523434043E-1,9.863214493E0
2.981392053E0,-3.397808075E-1,-9.308080077E-1,9.884750366E0
2.983803095E0,-3.469592929E-1,-9.044869542E-1,9.887143135E0
2.986214085E0,-3.541377485E-1,-8.901300430E-1,9.891928673E0
2.988625126E0,-3.732803464E-1,-8.805587292E-1,9.896714211E0
2.991036116E0,-3.828516304E-1,-8.590233326E-1,9.903892517E0
2.993447157E0,-4.067798555E-1,-8.422735929E-1,9.906285286E0
2.995858147E0,-3.972085714E-1,-8.327022791E-1,9.908679008E0
2.998269137E0,-4.211367965E-1,-7.992027402E-1,9.906285286E0
3.000680178E0,-4.402793646E-1,-7.633104324E-1,9.911071777E0
3.003091168E0,-4.450650215E-1,-7.274180651E-1,9.891928673E0
3.005502210E0,-4.546363056E-1,-7.202396393E-1,9.877572060E0
3.007913199E0,-4.713860750E-1,-6.867401004E-1,9.856036186E0
3.010324241E0,-4.881358147E-1,-6.771687865E-1,9.834501266E0
3.012735230E0,-5.024927258E-1,-6.508477330E-1,9.805787086E0
3.015146272E0,-5.072783828E-1,-6.101697683E-1,9.784252167E0
3.017557262E0,-5.383850932E-1,-5.742774606E-1,9.765109062E0
3.019968303E0,-5.479564071E-1,-5.575276613E-1,9.736394882E0
3.022379293E0,-5.312066078E-1,-5.144568682E-1,9.717252731E0
3.024790335E0,-5.335994363E-1,-4.929214716E-1,9.676574707E0
3.027201324E0,-5.407779217E-1,-4.618147612E-1,9.657432556E0
3.029612366E0,-5.527420044E-1,-4.450650215E-1,9.609575272E0
3.032023355E0,-5.766702294E-1,-4.187439680E-1,9.573683739E0
3.034434345E0,-5.718846321E-1,-3.900300860E-1,9.549755096E0
3.036845387E0,-5.838487148E-1,-3.421736360E-1,9.504291534E0
3.039256376E0,-5.982056856E-1,-2.871387303E-1,9.463613510E0
3.041667418E0,-6.029912829E-1,-2.679961324E-1,9.439684868E0
3.044078407E0,-6.269195080E-1,-2.440679073E-1,9.396614075E0
3.046489449E0,-6.125625968E-1,-2.249253243E-1,9.375079155E0
3.048900439E0,-6.340979934E-1,-1.914258152E-1,9.341579437E0
3.051311480E0,-6.125625968E-1,-1.627119333E-1,9.310472488E0
3.053722470E0,-6.173482537E-1,-1.292124242E-1,9.281759262E0
3.056133512E0,-6.269195080E-1,-9.810572863E-2,9.260223389E0
3.058544501E0,-6.221339107E-1,-6.939185411E-2,9.236295700E0
3.060955543E0,-6.029912829E-1,-2.632104978E-2,9.224330902E0
3.063366532E0,-6.125625968E-1,7.178467698E-3,9.207581520E0
3.065777522E0,-5.958128572E-1,2.632104978E-2,9.195617676E0
3.068188564E0,-5.934200287E-1,4.307080805E-2,9.183652878E0
3.070599553E0,-6.077769399E-1,7.417750359E-2,9.164510727E0
3.073010595E0,-5.886343718E-1,1.124626622E-1,9.166903496E0
3.075421585E0,-5.790630579E-1,1.483550072E-1,9.154939651E0
3.077832626E0,-5.910272002E-1,1.818545163E-1,9.162117958E0
3.080243616E0,-5.862415433E-1,2.177468538E-1,9.154939651E0
3.082654657E0,-5.766702294E-1,2.512463629E-1,9.152546883E0
3.085065647E0,-5.623133183E-1,2.751746178E-1,9.166903496E0
3.087476689E0,-5.599204898E-1,3.062812984E-1,9.178867340E0
3.089887678E0,-5.575276613E-1,3.397808075E-1,9.186046600E0
3.092298720E0,-5.407779217E-1,3.732803464E-1,9.178867340E0
3.094709710E0,-5.335994363E-1,4.043870270E-1,9.183652878E0
3.097120751E0,-5.359922647E-1,4.354937077E-1,9.193224907E0
3.099531741E0,-4.929214716E-1,4.522434771E-1,9.195617676E0
3.101942730E0,-4.881358147E-1,4.857429862E-1,9.202795982E0
3.104353772E0,-4.929214716E-1,5.120640397E-1,9.205188751E0
3.106764762E0,-4.929214716E-1,5.431707501E-1,9.198010445E0
3.109175803E0,-4.737788737E-1,5.694918036E-1,9.207581520E0
3.111586793E0,-4.546363056E-1,5.982056856E-1,9.221938133E0
3.113997835E0,-4.331009090E-1,6.077769399E-1,9.229117393E0
3.116408824E0,-4.019941986E-1,6.508477330E-1,9.248259544E0
3.118819866E0,-4.187439680E-1,6.867401004E-1,9.226723671E0
3.121230855E0,-4.043870270E-1,7.010970116E-1,9.243474007E0
3.123641897E0,-3.852444589E-1,7.202396393E-1,9.248259544E0
3.126052887E0,-3.637090325E-1,7.345965505E-1,9.255437851E0
3.128463876E0,-3.469592929E-1,7.513462901E-1,9.257830620E0
3.130874918E0,-3.565305769E-1,7.585247755E-1,9.250652313E0
3.133285907E0,-3.397808075E-1,7.920243144E-1,9.257830620E0
3.135696949E0,-3.038884699E-1,8.207381964E-1,9.255437851E0
3.138107939E0,-2.895315289E-1,8.255237937E-1,9.265008926E0
3.140518980E0,-2.679961324E-1,8.183453679E-1,9.281759262E0
3.142929970E0,-2.656033039E-1,8.279166222E-1,9.291330338E0
3.145341012E0,-2.368894368E-1,8.470591903E-1,9.310472488E0
3.147752001E0,-2.488535494E-1,8.542376757E-1,9.320044518E0
3.150163043E0,-2.344966233E-1,8.685946465E-1,9.343972206E0
3.152574032E0,-2.344966233E-1,8.805587292E-1,9.377471924E0
3.154985074E0,-2.225325108E-1,8.829515576E-1,9.394221306E0
3.157396064E0,-2.201396823E-1,8.805587292E-1,9.410971642E0
3.159807105E0,-2.105683982E-1,8.733802438E-1,9.449256897E0
3.162218095E0,-2.057827413E-1,8.853443861E-1,9.470791817E0
3.164629085E0,-2.081755698E-1,8.805587292E-1,9.511469841E0
3.167040126E0,-1.986042857E-1,8.757730722E-1,9.544969559E0
3.169451116E0,-2.009970993E-1,8.566305041E-1,9.590433121E0
3.171862157E0,-2.009970993E-1,8.638089895E-1,9.640682220E0
3.174273147E0,-2.009970993E-1,8.566305041E-1,9.695717812E0
3.176684189E0,-1.962114573E-1,8.805587292E-1,9.745966911E0
3.179095178E0,-1.962114573E-1,8.542376757E-1,9.805787086E0
3.181506220E0,-2.201396823E-1,8.518448472E-1,9.870393753E0
3.183917210E0,-2.129612118E-1,8.446664214E-1,9.942177773E0
3.186328251E0,-2.368894368E-1,8.111668825E-1,1.001396275E1
3.188739241E0,-2.344966233E-1,7.968099117E-1,1.010010433E1
3.191150282E0,-2.488535494E-1,7.944171429E-1,1.017188931E1
3.193561272E0,-2.560320199E-1,7.776673436E-1,1.024606609E1
3.195972262E0,-2.727817893E-1,7.704889178E-1,1.032742214E1
3.198383303E0,-2.919243574E-1,7.489534616E-1,1.041117096E1
3.200794293E0,-3.110669553E-1,7.274180651E-1,1.050688457E1
3.203205335E0,-3.373879790E-1,7.010970116E-1,1.058106136E1
3.205616324E0,-3.493520916E-1,6.891329288E-1,1.067916775E1
3.208027366E0,-3.613162339E-1,6.628118753E-1,1.077248764E1
3.210438355E0,-3.661018610E-1,6.436693072E-1,1.088016415E1
3.212849397E0,-3.948157430E-1,6.197410822E-1,1.097827053E1
3.215260387E0,-3.996013701E-1,6.053841114E-1,1.107637596E1
3.217671428E0,-4.307080805E-1,5.647061467E-1,1.117208862E1
3.220082418E0,-4.474578202E-1,5.335994363E-1,1.125583744E1
3.222493460E0,-4.809573591E-1,4.857429862E-1,1.136112213E1
3.224904449E0,-4.977070987E-1,4.642075896E-1,1.144247818E1
3.227315439E0,-5.288137794E-1,4.354937077E-1,1.154776192E1
3.229726480E0,-5.407779217E-1,4.019941986E-1,1.163868904E1
3.232137470E0,-5.623133183E-1,3.661018610E-1,1.172004509E1
3.234548512E0,-5.575276613E-1,3.254238665E-1,1.180379391E1
3.236959501E0,-5.934200287E-1,2.919243574E-1,1.188993549E1
3.239370543E0,-6.388836503E-1,2.440679073E-1,1.197846985E1
3.241781532E0,-6.460621357E-1,2.081755698E-1,1.205264759E1
3.244192574E0,-6.460621357E-1,1.962114573E-1,1.212682533E1
3.246603564E0,-6.532405615E-1,1.579262912E-1,1.221296692E1
3.249014605E0,-6.939185858E-1,1.220339537E-1,1.228714466E1
3.251425595E0,-7.154539824E-1,8.853443712E-2,1.235175037E1
3.253836637E0,-7.322037220E-1,3.110669367E-2,1.239721394E1
3.256247626E0,-7.369893789E-1,-2.392822644E-3,1.247378445E1
3.258658668E0,-7.513462901E-1,-4.067798331E-2,1.254078388E1
3.261069657E0,-7.800601721E-1,-8.614161611E-2,1.259342575E1
3.263480647E0,-7.848458290E-1,-1.363908947E-1,1.264846039E1
3.265891689E0,-7.776673436E-1,-1.818545163E-1,1.271067429E1
3.268302678E0,-7.680960894E-1,-2.057827413E-1,1.275853062E1
3.270713720E0,-7.824530005E-1,-2.440679073E-1,1.281117249E1
3.273124710E0,-7.920243144E-1,-2.799602449E-1,1.286859989E1
3.275535751E0,-8.063812256E-1,-3.134597540E-1,1.291406345E1
3.277946741E0,-8.039883971E-1,-3.708875179E-1,1.294995594E1
3.280357782E0,-8.135597110E-1,-4.043870270E-1,1.300020504E1
3.282768772E0,-8.039883971E-1,-4.426721931E-1,1.305524063E1
3.285179814E0,-8.255237937E-1,-4.737788737E-1,1.308395386E1
3.287590803E0,-8.231309652E-1,-5.120640397E-1,1.313181114E1
3.290001793E0,-8.159525394E-1,-5.431707501E-1,1.317009544E1
3.292412835E0,-7.968099117E-1,-5.886343718E-1,1.321795273E1
3.294823824E0,-8.111668825E-1,-6.125625968E-1,1.324666595E1
3.297234866E0,-7.968099117E-1,-6.628118753E-1,1.329212952E1
3.299645855E0,-7.800601721E-1,-6.939185858E-1,1.333520031E1
3.302056897E0,-7.848458290E-1,-7.226324677E-1,1.336391449E1
3.304467887E0,-7.872386575E-1,-7.800601721E-1,1.341416359E1
3.306878928E0,-7.680960894E-1,-7.992027402E-1,1.345484161E1
3.309289918E0,-7.489534616E-1,-8.255237937E-1,1.349073410E1
3.311700960E0,-7.441678643E-1,-8.781659007E-1,1.354337597E1
3.314111949E0,-7.298108935E-1,-9.020941257E-1,1.356012630E1
3.316522991E0,-7.298108935E-1,-9.308080077E-1,1.357926846E1
3.318933980E0,-7.034898400E-1,-9.547362328E-1,1.361276817E1
3.321345022E0,-6.843472719E-1,-9.834501147E-1,1.362233925E1
3.323756012E0,-6.723831892E-1,-1.014556766E0,1.366541004E1
3.326167001E0,-6.628118753E-1,-1.052842021E0,1.368455315E1
3.328578043E0,-6.317051649E-1,-1.064806104E0,1.371087360E1
3.330989032E0,-6.053841114E-1,-1.081555843E0,1.373719501E1
3.333400074E0,-5.862415433E-1,-1.100698471E0,1.373958778E1
3.335811064E0,-5.742774606E-1,-1.134197950E0,1.374676609E1
3.338222105E0,-5.527420044E-1,-1.150947690E0,1.376351547E1
3.340633095E0,-5.359922647E-1,-1.162911773E0,1.377548027E1
3.343044137E0,-5.264210105E-1,-1.165304661E0,1.377308750E1
3.345455126E0,-4.953143001E-1,-1.201196909E0,1.377548027E1
3.347866168E0,-4.833501875E-1,-1.222732425E0,1.376112270E1
3.350277157E0,-4.618147612E-1,-1.227517962E0,1.375394440E1
3.352688199E0,-4.522434771E-1,-1.249053478E0,1.372523022E1
3.355099189E0,-4.259224236E-1,-1.246660590E0,1.371326637E1
3.357510230E0,-4.259224236E-1,-1.261017561E0,1.368694592E1
3.359921220E0,-4.067798555E-1,-1.270588875E0,1.365583897E1
3.362332210E0,-4.019941986E-1,-1.268195987E0,1.363908863E1
3.364743251E0,-3.828516304E-1,-1.270588875E0,1.360319710E1
3.367154241E0,-3.589234054E-1,-1.275374413E0,1.356730461E1
3.369565282E0,-3.684946895E-1,-1.270588875E0,1.353380489E1
3.371976272E0,-3.589234054E-1,-1.268195987E0,1.347877026E1
3.374387314E0,-3.421736360E-1,-1.261017561E0,1.343809223E1
3.376798303E0,-3.326023519E-1,-1.249053478E0,1.340459251E1
3.379209345E0,-3.230310678E-1,-1.244267821E0,1.336870003E1
3.381620335E0,-3.206382394E-1,-1.234696507E0,1.332084370E1
3.384031376E0,-3.230310678E-1,-1.237089276E0,1.326820183E1
3.386442366E0,-2.991028428E-1,-1.220339537E0,1.323948765E1
3.388853407E0,-3.038884699E-1,-1.205982566E0,1.320120239E1
3.391264397E0,-3.014956415E-1,-1.191625714E0,1.314377499E1
3.393675387E0,-2.991028428E-1,-1.196411371E0,1.309113312E1
3.396086428E0,-2.991028428E-1,-1.182054400E0,1.305763340E1
3.398497418E0,-3.134597540E-1,-1.155733347E0,1.301695538E1
3.400908460E0,-3.278166950E-1,-1.129412293E0,1.298345566E1
3.403319449E0,-3.254238665E-1,-1.091127157E0,1.295234871E1
3.405730491E0,-3.373879790E-1,-1.083948612E0,1.290449238E1
3.408141480E0,-3.397808075E-1,-1.055234790E0,1.284945774E1
3.410552522E0,-3.493520916E-1,-1.031306505E0,1.282074356E1
3.412963512E0,-3.756731451E-1,-1.009771109E0,1.279442310E1
3.415374553E0,-3.948157430E-1,-9.643075466E-1,1.276570892E1
3.417785543E0,-4.067798555E-1,-9.164510965E-1,1.272024536E1
3.420196585E0,-4.139583111E-1,-8.949156404E-1,1.270349503E1
3.422607574E0,-4.139583111E-1,-8.566305041E-1,1.266999626E1
3.425018616E0,-4.331009090E-1,-8.231309652E-1,1.262453270E1
3.427429605E0,-4.522434771E-1,-7.944171429E-1,1.256231880E1
3.429840595E0,-4.666004181E-1,-7.465606928E-1,1.252164078E1
3.432251637E0,-4.594219327E-1,-7.106683254E-1,1.247856998E1
3.434662626E0,-4.785645306E-1,-6.652047038E-1,1.243789196E1
3.437073668E0,-5.072783828E-1,-6.149554253E-1,1.238525009E1
3.439484657E0,-5.288137794E-1,-5.694918036E-1,1.232542896E1
3.441895699E0,-5.479564071E-1,-5.407779217E-1,1.226560879E1
3.444306689E0,-5.575276613E-1,-4.881358147E-1,1.221057415E1
3.446717730E0,-5.838487148E-1,-4.402793646E-1,1.214596748E1
3.449128720E0,-5.790630579E-1,-3.852444589E-1,1.209332561E1
3.451539762E0,-5.934200287E-1,-3.302095234E-1,1.202632618E1
3.453950751E0,-6.197410822E-1,-3.038884699E-1,1.195454216E1
3.456361793E0,-6.245267391E-1,-2.512463629E-1,1.187079334E1
3.458772782E0,-6.556333899E-1,-1.746760458E-1,1.178465176E1
3.461183772E0,-6.604190469E-1,-1.292124242E-1,1.170568848E1
3.463594814E0,-6.723831892E-1,-8.853443712E-2,1.162911797E1
3.466005803E0,-6.795616150E-1,-3.589234129E-2,1.152622700E1
3.468416845E0,-6.819544435E-1,2.392822644E-3,1.141615677E1
3.470827835E0,-6.867401004E-1,7.178468257E-2,1.132044411E1
3.473238876E0,-6.987041831E-1,1.172483116E-1,1.121994495E1
3.475649866E0,-7.034898400E-1,1.507478207E-1,1.113141060E1
3.478060907E0,-6.915257573E-1,1.842473447E-1,1.102373409E1
3.480471897E0,-6.963114142E-1,2.416750938E-1,1.092802143E1
3.482882939E0,-7.154539824E-1,3.086741269E-1,1.084427261E1
3.485293928E0,-7.106683254E-1,3.445664644E-1,1.074377346E1
3.487704970E0,-6.987041831E-1,4.139583111E-1,1.064806080E1
3.490115960E0,-7.106683254E-1,4.546363056E-1,1.053081226E1
3.492526949E0,-7.010970116E-1,4.857429862E-1,1.043509960E1
3.494937991E0,-7.034898400E-1,5.407779217E-1,1.034895802E1
3.497348980E0,-7.010970116E-1,6.005984545E-1,1.026760197E1
3.499760022E0,-6.939185858E-1,6.269195080E-1,1.017906761E1
3.502171012E0,-6.819544435E-1,6.819544435E-1,1.006899738E1
3.504582053E0,-6.795616150E-1,7.513462901E-1,9.982855797E0
3.506993043E0,-6.819544435E-1,7.848458290E-1,9.906285286E0
3.509404085E0,-6.652047038E-1,8.255237937E-1,9.822537422E0
3.511815074E0,-6.604190469E-1,8.422735929E-1,9.734002113E0
3.514226116E0,-6.484549642E-1,8.853443861E-1,9.647860527E0
3.516637105E0,-6.173482537E-1,9.212366939E-1,9.573683739E0
3.519048147E0,-6.029912829E-1,9.786644578E-1,9.497113228E0
3.521459137E0,-5.958128572E-1,1.014556766E0,9.425328255E0
3.523870126E0,-5.790630579E-1,1.057627559E0,9.370293617E0
3.526281168E0,-5.718846321E-1,1.105484009E0,9.303294182E0
3.528692157E0,-5.503492355E-1,1.127019525E0,9.236295700E0
3.531103199E0,-5.168496966E-1,1.158126116E0,9.169296265E0
3.533514189E0,-5.120640397E-1,1.201196909E0,9.102297783E0
3.535925230E0,-4.929214716E-1,1.237089276E0,9.061619759E0
3.538336220E0,-4.713860750E-1,1.251446247E0,9.016156197E0
3.540747262E0,-4.618147612E-1,1.272981644E0,8.965906143E0
3.543158251E0,-4.498506486E-1,1.299302697E0,8.918049812E0
3.545569293E0,-4.283152521E-1,1.332802176E0,8.860622406E0
3.547980282E0,-4.091726840E-1,1.378265858E0,8.805587769E0
3.550391272E0,-4.019941986E-1,1.406979680E0,8.752944946E0
3.552802314E0,-3.876372576E-1,1.416550994E0,8.705088615E0
3.555213303E0,-3.541377485E-1,1.435693622E0,8.652446747E0
3.557624345E0,-3.421736360E-1,1.454836130E0,8.614161491E0
3.560035335E0,-3.158525825E-1,1.481157184E0,8.571090698E0
3.562446376E0,-2.967100143E-1,1.493121386E0,8.516056061E0
3.564857366E0,-2.919243574E-1,1.500299811E0,8.477770805E0
3.567268407E0,-2.703889608E-1,1.493121386E0,8.441878319E0
3.569679397E0,-2.751746178E-1,1.514656782E0,8.391629219E0
3.572090439E0,-2.488535494E-1,1.543370605E0,8.343772888E0
3.574501428E0,-2.273181528E-1,1.540977836E0,8.295916557E0
3.576912470E0,-2.177468538E-1,1.533799291E0,8.260024071E0
3.579323460E0,-1.914258152E-1,1.560120344E0,8.214560509E0
3.581734449E0,-1.938186288E-1,1.555334687E0,8.178668022E0
3.584145491E0,-1.962114573E-1,1.555334687E0,8.147561073E0
3.586556480E0,-1.818545163E-1,1.557727575E0,8.102097511E0
3.588967522E0,-1.746760458E-1,1.557727575E0,8.080561638E0
3.591378512E0,-1.722832322E-1,1.560120344E0,8.042277336E0
3.593789553E0,-1.770688742E-1,1.543370605E0,8.006384850E0
3.596200543E0,-1.627119333E-1,1.540977836E0,7.965706348E0
3.598611585E0,-1.459621787E-1,1.531406522E0,7.946564198E0
3.601022574E0,-1.387837082E-1,1.519442320E0,7.927421570E0
3.603433616E0,-1.411765367E-1,1.497906923E0,7.917850018E0
3.605844605E0,-1.435693651E-1,1.481157184E0,7.893921852E0
3.608255647E0,-1.435693651E-1,1.471585870E0,7.872386456E0
3.610666637E0,-1.363908947E-1,1.450050473E0,7.862815380E0
3.613077678E0,-1.435693651E-1,1.440479279E0,7.862815380E0
3.615488668E0,-1.531406492E-1,1.435693622E0,7.850851059E0
3.617899710E0,-1.579262912E-1,1.409372568E0,7.858029366E0
3.620310699E0,-1.627119333E-1,1.397408366E0,7.846065521E0
3.622721689E0,-1.698904037E-1,1.399801254E0,7.836493969E0
3.625132730E0,-1.746760458E-1,1.363908887E0,7.846065521E0
3.627543720E0,-1.794617027E-1,1.335195065E0,7.858029366E0
3.629954762E0,-1.818545163E-1,1.318445325E0,7.858029366E0
3.632365751E0,-1.914258152E-1,1.313659668E0,7.886743546E0
3.634776793E0,-1.962114573E-1,1.261017561E0,7.884350777E0
3.637187782E0,-2.225325108E-1,1.232303619E0,7.901100159E0
3.639598824E0,-2.344966233E-1,1.213161111E0,7.910671711E0
3.642009814E0,-2.368894368E-1,1.208375454E0,7.939385414E0
3.644420855E0,-2.488535494E-1,1.182054400E0,7.958528042E0
3.646831845E0,-2.440679073E-1,1.155733347E0,7.992027760E0
3.649242835E0,-2.632105052E-1,1.124626637E0,8.008777618E0
3.651653876E0,-2.751746178E-1,1.095912814E0,8.032705307E0
3.654064866E0,-2.991028428E-1,1.064806104E0,8.061419487E0
3.656475907E0,-3.254238665E-1,1.057627559E0,8.092526436E0
3.658886897E0,-3.349951804E-1,1.038485050E0,8.114061356E0
3.661297939E0,-3.397808075E-1,9.978070259E-1,8.149953842E0
3.663708928E0,-3.445664644E-1,9.714859724E-1,8.195417404E0
3.666119970E0,-3.565305769E-1,9.475577474E-1,8.216953278E0
3.668530960E0,-3.828516304E-1,9.236295223E-1,8.250452042E0
3.670942001E0,-3.924229145E-1,8.949156404E-1,8.279166222E0
3.673352991E0,-4.139583111E-1,8.638089895E-1,8.319844246E0
3.675764032E0,-4.091726840E-1,8.446664214E-1,8.346165657E0
3.678175022E0,-4.378865361E-1,8.183453679E-1,8.372486115E0
3.680586012E0,-4.378865361E-1,7.992027402E-1,8.396414757E0
3.682997053E0,-4.378865361E-1,7.680960894E-1,8.422736168E0
3.685408043E0,-4.474578202E-1,7.322037220E-1,8.453842163E0
3.687819085E0,-4.666004181E-1,7.082754970E-1,8.477770805E0
3.690230074E0,-5.000999570E-1,6.675975323E-1,8.496912956E0
3.692641116E0,-4.881358147E-1,6.508477330E-1,8.518448830E0
3.695052105E0,-5.024927258E-1,6.149554253E-1,8.539983749E0
3.697463147E0,-5.144568682E-1,5.838487148E-1,8.561519623E0
3.699874137E0,-5.216353536E-1,5.694918036E-1,8.587840080E0
3.702285178E0,-5.168496966E-1,5.383850932E-1,8.604590416E0
3.704696168E0,-5.312066078E-1,4.953143001E-1,8.611768723E0
3.707107157E0,-5.240281820E-1,4.785645306E-1,8.628518105E0
3.709518199E0,-5.335994363E-1,4.570291340E-1,8.640482903E0
3.711928228E0,-5.383850932E-1,4.331009090E-1,8.638090134E0
3.714338800E0,-5.431707501E-1,4.067798555E-1,8.666803360E0
3.716749790E0,-5.503492355E-1,3.876372576E-1,8.676374435E0
3.719160832E0,-5.479564071E-1,3.565305769E-1,8.685946465E0
3.721571821E0,-5.431707501E-1,3.397808075E-1,8.697910309E0
3.723982863E0,-5.431707501E-1,3.206382394E-1,8.712266922E0
3.726393852E0,-5.503492355E-1,3.062812984E-1,8.705088615E0
3.728804894E0,-5.359922647E-1,2.703889608E-1,8.712266922E0
3.731215884E0,-5.431707501E-1,2.416750938E-1,8.731410027E0
3.733626925E0,-5.431707501E-1,2.153540403E-1,8.745766640E0
3.736037915E0,-5.527420044E-1,2.033899277E-1,8.760123253E0
3.738448957E0,-5.383850932E-1,1.890329868E-1,8.764909744E0
3.740859946E0,-5.264210105E-1,1.794617027E-1,8.791230202E0
3.743270936E0,-5.096712112E-1,1.531406492E-1,8.803194046E0
3.745681977E0,-5.144568682E-1,1.292124242E-1,8.805587769E0
3.748092967E0,-5.024927258E-1,9.810572863E-2,8.822337151E0
3.750504009E0,-4.929214716E-1,1.004985496E-1,8.848658562E0
3.752914998E0,-4.953143001E-1,8.853443712E-2,8.865407944E0
3.755326040E0,-4.809573591E-1,7.657032460E-2,8.882157326E0
3.757737030E0,-5.000999570E-1,6.699903309E-2,8.903693199E0
3.760148071E0,-4.953143001E-1,4.785645381E-2,8.927620888E0
3.762559061E0,-4.857429862E-1,3.589234129E-2,8.949156761E0
3.764970102E0,-4.737788737E-1,1.196411345E-2,8.970691681E0
3.767381092E0,-4.689932466E-1,4.785645287E-3,8.999405861E0
3.769792134E0,-4.402793646E-1,-4.785645287E-3,9.030512810E0
3.772203123E0,-4.354937077E-1,-1.914258115E-2,9.052047729E0
3.774614113E0,-4.187439680E-1,-2.392822690E-2,9.061619759E0
3.777025155E0,-4.067798555E-1,-4.307080805E-2,9.090332985E0
3.779436144E0,-4.067798555E-1,-7.178468257E-2,9.111868858E0
3.781847186E0,-4.187439680E-1,-7.657032460E-2,9.142974854E0
3.784258175E0,-3.828516304E-1,-8.135596663E-2,9.166903496E0
3.786669217E0,-3.756731451E-1,-8.374879509E-2,9.193224907E0
3.789080207E0,-3.756731451E-1,-1.052841991E-1,9.214759827E0
3.791491248E0,-3.732803464E-1,-1.028913707E-1,9.248259544E0
3.793902238E0,-3.541377485E-1,-9.571290761E-2,9.262616158E0
3.796313280E0,-3.397808075E-1,-9.810572863E-2,9.293723106E0
3.798724269E0,-3.278166950E-1,-9.571290761E-2,9.303294182E0
3.801135311E0,-3.254238665E-1,-1.028913707E-1,9.327222824E0
3.803546300E0,-3.182454109E-1,-1.172483116E-1,9.346364975E0
3.805957290E0,-3.038884699E-1,-1.004985496E-1,9.353543282E0
3.808368332E0,-2.991028428E-1,-1.004985496E-1,9.360722542E0
3.810779321E0,-3.014956415E-1,-1.052841991E-1,9.389435768E0
3.813190363E0,-2.919243574E-1,-1.148554832E-1,9.401400566E0
3.815601352E0,-2.847459018E-1,-1.148554832E-1,9.420542717E0
3.818012394E0,-2.727817893E-1,-1.100698411E-1,9.442078590E0
3.820423384E0,-2.632105052E-1,-1.028913707E-1,9.458827972E0
3.822834425E0,-2.584248483E-1,-1.028913707E-1,9.463613510E0
3.825245415E0,-2.464607358E-1,-9.571290761E-2,9.480362892E0
3.827656457E0,-2.368894368E-1,-8.374879509E-2,9.489934921E0
3.830067446E0,-2.321037948E-1,-7.657032460E-2,9.501898766E0
3.832478488E0,-2.440679073E-1,-6.221338734E-2,9.518648148E0
3.834889477E0,-2.368894368E-1,-5.264209956E-2,9.528220177E0
3.837300467E0,-2.153540403E-1,-4.546362907E-2,9.535398483E0
3.839711509E0,-2.153540403E-1,-3.589234129E-2,9.547362328E0
3.842122498E0,-2.225325108E-1,-3.589234129E-2,9.583254814E0
3.844533540E0,-2.129612118E-1,-1.435693540E-2,9.592825890E0
3.846944530E0,-2.225325108E-1,-2.392822644E-3,9.595218658E0
3.849355571E0,-2.201396823E-1,9.571290575E-3,9.614361763E0
3.851766561E0,-2.129612118E-1,1.196411345E-2,9.616754532E0
3.854177602E0,-2.057827413E-1,2.392822690E-2,9.626325607E0
3.856588592E0,-2.321037948E-1,3.349951655E-2,9.652647018E0
3.858999634E0,-2.201396823E-1,4.785645381E-2,9.667003632E0
3.861410623E0,-2.321037948E-1,6.939185411E-2,9.686145782E0
3.863821665E0,-2.344966233E-1,9.092725813E-2,9.705288887E0
3.866232655E0,-2.536391914E-1,1.100698411E-1,9.724431038E0
3.868643644E0,-2.512463629E-1,1.268195957E-1,9.741181374E0
3.871054686E0,-2.512463629E-1,1.339980662E-1,9.774680138E0
3.873465675E0,-2.392822653E-1,1.651047617E-1,9.791430473E0
3.875876717E0,-2.584248483E-1,1.770688742E-1,9.820143700E0
3.878287707E0,-2.703889608E-1,1.938186288E-1,9.839286804E0
3.880698748E0,-3.038884699E-1,2.081755698E-1,9.865608215E0
3.883109738E0,-3.086741269E-1,2.464607358E-1,9.896714211E0
3.885520780E0,-3.134597540E-1,2.679961324E-1,9.918250084E0
3.887931769E0,-3.278166950E-1,2.895315289E-1,9.937392235E0
3.890342811E0,-3.373879790E-1,3.206382394E-1,9.961320877E0
3.892753800E0,-3.421736360E-1,3.469592929E-1,9.978070259E0
3.895164842E0,-3.661018610E-1,3.756731451E-1,9.994820595E0
3.897575832E0,-3.900300860E-1,3.996013701E-1,1.001396275E1
3.899986873E0,-4.067798555E-1,4.235295951E-1,1.003549862E1
3.902397863E0,-4.139583111E-1,4.522434771E-1,1.005942631E1
3.904808852E0,-4.402793646E-1,4.761717021E-1,1.007617569E1
3.907219894E0,-4.307080805E-1,5.120640397E-1,1.009292603E1
3.909630884E0,-4.570291340E-1,5.383850932E-1,1.012642574E1
3.912041925E0,-4.689932466E-1,5.551348329E-1,1.014556789E1
3.914452915E0,-4.809573591E-1,5.910272002E-1,1.014317513E1
3.916863957E0,-4.929214716E-1,6.077769399E-1,1.013838959E1
3.919274946E0,-5.072783828E-1,6.317051649E-1,1.015753174E1
3.921685988E0,-5.240281820E-1,6.723831892E-1,1.016231823E1
3.924096977E0,-5.312066078E-1,7.010970116E-1,1.016710377E1
3.926508019E0,-5.575276613E-1,7.274180651E-1,1.016949654E1
3.928919009E0,-5.647061467E-1,7.537391186E-1,1.017906761E1
3.931329998E0,-5.838487148E-1,7.896314859E-1,1.018385315E1
3.933741040E0,-6.005984545E-1,8.231309652E-1,1.018385315E1
3.936152030E0,-6.101697683E-1,8.327022791E-1,1.019581699E1
3.938563071E0,-6.173482537E-1,8.590233326E-1,1.019103146E1
3.940974061E0,-6.125625968E-1,8.997012973E-1,1.019103146E1
3.943385102E0,-6.317051649E-1,9.284151793E-1,1.019342422E1
3.945796092E0,-6.340979934E-1,9.355936646E-1,1.018624592E1
3.948207134E0,-6.508477330E-1,9.643075466E-1,1.018146038E1
3.950618123E0,-6.388836503E-1,9.858429432E-1,1.018863869E1
3.953029165E0,-6.604190469E-1,1.009771109E0,1.018624592E1
3.955440155E0,-6.508477330E-1,1.024128079E0,1.016710377E1
3.957851196E0,-6.652047038E-1,1.043270707E0,1.016710377E1
3.960262186E0,-6.819544435E-1,1.064806104E0,1.017428207E1
3.962673175E0,-6.819544435E-1,1.088734269E0,1.017188931E1
3.965084217E0,-6.556333899E-1,1.131805062E0,1.018624592E1
3.967495207E0,-6.819544435E-1,1.148554921E0,1.017188931E1
3.969906248E0,-6.652047038E-1,1.165304661E0,1.016949654E1
3.972317238E0,-6.604190469E-1,1.158126116E0,1.016949654E1
3.974728280E0,-6.675975323E-1,1.165304661E0,1.016710377E1
3.977139269E0,-6.556333899E-1,1.198804140E0,1.017906761E1
3.979550311E0,-6.436693072E-1,1.217946768E0,1.020060253E1
3.981961300E0,-6.436693072E-1,1.220339537E0,1.019581699E1
3.984372342E0,-6.460621357E-1,1.237089276E0,1.020299530E1
3.986783332E0,-6.149554253E-1,1.249053478E0,1.021735287E1
3.989194373E0,-5.982056856E-1,1.256231904E0,1.021974564E1
3.991605363E0,-5.934200287E-1,1.256231904E0,1.023649502E1
3.994016352E0,-5.838487148E-1,1.272981644E0,1.024845982E1
3.996427394E0,-5.742774606E-1,1.282552958E0,1.024606609E1
3.998838384E0,-5.694918036E-1,1.272981644E0,1.026042366E1
4.001249425E0,-5.527420044E-1,1.289731383E0,1.027956581E1
4.003660415E0,-5.288137794E-1,1.316052437E0,1.029631615E1
4.006071457E0,-5.120640397E-1,1.296909928E0,1.031067276E1
4.008482446E0,-5.024927258E-1,1.289731383E0,1.032981491E1
4.010893488E0,-4.929214716E-1,1.277767301E0,1.035613632E1
4.013304477E0,-4.761717021E-1,1.275374413E0,1.038006496E1
4.015715519E0,-4.570291340E-1,1.253839016E0,1.039202881E1
4.018126509E0,-4.618147612E-1,1.253839016E0,1.040877819E1
4.020537550E0,-4.307080805E-1,1.256231904E0,1.044467068E1
4.022948540E0,-4.211367965E-1,1.251446247E0,1.046381378E1
4.025359530E0,-4.091726840E-1,1.210768223E0,1.049970531E1
4.027770571E0,-3.876372576E-1,1.189232826E0,1.052363396E1
4.030181561E0,-3.732803464E-1,1.186840057E0,1.054038334E1
4.032592602E0,-3.613162339E-1,1.177268744E0,1.054995537E1
4.035003592E0,-3.589234054E-1,1.160519004E0,1.056670475E1
4.037414634E0,-3.469592929E-1,1.136590719E0,1.059781170E1
4.039825623E0,-3.373879790E-1,1.100698471E0,1.063609695E1
4.042236665E0,-3.349951804E-1,1.079162955E0,1.066002464E1
4.044647655E0,-3.326023519E-1,1.045663476E0,1.069352436E1
4.047058696E0,-3.110669553E-1,1.012163997E0,1.070309544E1
4.049469686E0,-3.014956415E-1,9.882357717E-1,1.073180962E1
4.051880727E0,-2.919243574E-1,9.690931439E-1,1.077966595E1
4.054291717E0,-2.943171859E-1,9.188438654E-1,1.081555843E1
4.056702707E0,-2.871387303E-1,8.853443861E-1,1.084905815E1
4.059113748E0,-2.871387303E-1,8.590233326E-1,1.087777138E1
4.061524738E0,-2.991028428E-1,8.231309652E-1,1.092562866E1
4.063935780E0,-2.991028428E-1,7.944171429E-1,1.096630573E1
4.066346769E0,-2.895315289E-1,7.226324677E-1,1.100459099E1
4.068757811E0,-2.775674164E-1,6.939185858E-1,1.105723381E1
4.071168800E0,-2.823530734E-1,6.628118753E-1,1.109791183E1
4.073579842E0,-2.895315289E-1,6.101697683E-1,1.114576817E1
4.075990832E0,-2.967100143E-1,5.599204898E-1,1.119123173E1
4.078401873E0,-3.110669553E-1,5.144568682E-1,1.123669529E1
4.080812863E0,-3.134597540E-1,4.689932466E-1,1.129651546E1
4.083223852E0,-3.230310678E-1,4.307080805E-1,1.136112213E1
4.085634894E0,-3.421736360E-1,3.900300860E-1,1.142333508E1
4.088045884E0,-3.541377485E-1,3.493520916E-1,1.149990559E1
4.090456925E0,-3.684946895E-1,2.967100143E-1,1.155254745E1
4.092867915E0,-3.948157430E-1,2.392822653E-1,1.161954689E1
4.095278957E0,-4.091726840E-1,2.081755698E-1,1.169133186E1
4.097689946E0,-4.259224236E-1,1.651047617E-1,1.175593758E1
4.100100988E0,-4.283152521E-1,1.244267747E-1,1.182054424E1
4.102511977E0,-4.426721931E-1,8.374879509E-2,1.189711380E1
4.104923019E0,-4.642075896E-1,3.828516230E-2,1.197607708E1
4.107334009E0,-4.857429862E-1,-1.674975827E-2,1.204546928E1
4.109745050E0,-4.977070987E-1,-6.699903309E-2,1.212203979E1
4.112156040E0,-5.312066078E-1,-1.172483116E-1,1.218185997E1
4.114567082E0,-5.527420044E-1,-1.651047617E-1,1.225603771E1
4.116978071E0,-5.647061467E-1,-2.129612118E-1,1.232782269E1
4.119389061E0,-5.814558864E-1,-2.512463629E-1,1.239721394E1
4.121800102E0,-6.245267391E-1,-2.943171859E-1,1.244746304E1
4.124211092E0,-6.460621357E-1,-3.397808075E-1,1.252881908E1
4.126622134E0,-6.460621357E-1,-3.972085714E-1,1.258864021E1
4.129033123E0,-6.675975323E-1,-4.259224236E-1,1.265803146E1
4.131444165E0,-6.747759581E-1,-4.546363056E-1,1.271306705E1
4.133855155E0,-6.867401004E-1,-5.096712112E-1,1.277288723E1
4.136266196E0,-7.154539824E-1,-5.431707501E-1,1.283510113E1
4.138677186E0,-7.274180651E-1,-5.790630579E-1,1.288295746E1
4.141088227E0,-7.585247755E-1,-6.269195080E-1,1.292124271E1
4.143499217E0,-7.704889178E-1,-6.580262184E-1,1.295952702E1
4.145910259E0,-7.657032609E-1,-6.939185858E-1,1.300020504E1
4.148321248E0,-7.680960894E-1,-7.322037220E-1,1.302652645E1
4.150732238E0,-7.848458290E-1,-7.704889178E-1,1.304566860E1
4.153143280E0,-7.944171429E-1,-7.968099117E-1,1.306002617E1
4.155554269E0,-7.944171429E-1,-8.207381964E-1,1.309113312E1
4.157965311E0,-7.896314859E-1,-8.662018180E-1,1.311266804E1
4.160376300E0,-8.039883971E-1,-8.829515576E-1,1.312702465E1
4.162787342E0,-7.968099117E-1,-9.164510965E-1,1.313898945E1
4.165198332E0,-7.896314859E-1,-9.499505758E-1,1.315334606E1
4.167609373E0,-7.920243144E-1,-9.547362328E-1,1.315095329E1
4.170020363E0,-7.896314859E-1,-9.595218897E-1,1.316052437E1
4.172431405E0,-7.776673436E-1,-9.954141974E-1,1.315813160E1
4.174842394E0,-7.920243144E-1,-1.007378340E0,1.315334606E1
4.177253384E0,-7.824530005E-1,-1.019342422E0,1.313898945E1
4.179664425E0,-7.872386575E-1,-1.060020447E0,1.314856052E1
4.182075415E0,-7.776673436E-1,-1.060020447E0,1.313898945E1
4.184486457E0,-7.585247755E-1,-1.076770186E0,1.312941742E1
4.186897446E0,-7.489534616E-1,-1.081555843E0,1.312941742E1
4.189308488E0,-7.322037220E-1,-1.098305583E0,1.310548973E1
4.191719477E0,-7.298108935E-1,-1.095912814E0,1.311027527E1
4.194130519E0,-7.298108935E-1,-1.107876897E0,1.310070419E1
4.196541509E0,-7.202396393E-1,-1.134197950E0,1.310309696E1
4.198952550E0,-7.010970116E-1,-1.131805062E0,1.308156109E1
4.201363540E0,-6.891329288E-1,-1.134197950E0,1.306959724E1
4.203774582E0,-6.843472719E-1,-1.146162033E0,1.306481171E1
4.206185571E0,-6.699903607E-1,-1.143769264E0,1.305763340E1
4.208596613E0,-6.580262184E-1,-1.143769264E0,1.304088306E1
4.211007602E0,-6.364908218E-1,-1.141376376E0,1.304088306E1
4.213418592E0,-6.221339107E-1,-1.136590719E0,1.304088306E1
4.215829634E0,-6.077769399E-1,-1.146162033E0,1.303849030E1
4.218240623E0,-5.862415433E-1,-1.141376376E0,1.302413368E1
4.220651665E0,-5.718846321E-1,-1.129412293E0,1.300499153E1
4.223062655E0,-5.503492355E-1,-1.141376376E0,1.300977707E1
4.225473696E0,-5.479564071E-1,-1.129412293E0,1.299063396E1
4.227884686E0,-5.288137794E-1,-1.122233868E0,1.296431351E1
4.230295727E0,-5.168496966E-1,-1.122233868E0,1.293799210E1
4.232706717E0,-4.929214716E-1,-1.117448211E0,1.292124271E1
4.235117759E0,-4.881358147E-1,-1.110269666E0,1.290209961E1
4.237528748E0,-4.618147612E-1,-1.100698471E0,1.286620712E1
4.239939790E0,-4.474578202E-1,-1.088734269E0,1.283749390E1
4.242350780E0,-4.283152521E-1,-1.074377418E0,1.280877972E1
4.244761769E0,-4.067798555E-1,-1.081555843E0,1.276570892E1
4.247172811E0,-4.139583111E-1,-1.057627559E0,1.270828152E1
4.249583800E0,-3.876372576E-1,-1.050449133E0,1.267478180E1
4.251994842E0,-3.780659735E-1,-1.024128079E0,1.262453270E1
4.254405832E0,-3.732803464E-1,-1.007378340E0,1.257428265E1
4.256816873E0,-3.684946895E-1,-1.000199914E0,1.252642632E1
4.259227863E0,-3.613162339E-1,-9.786644578E-1,1.246421337E1
4.261638905E0,-3.493520916E-1,-9.547362328E-1,1.239482117E1
4.264049894E0,-3.421736360E-1,-9.260223508E-1,1.233021545E1
4.266460936E0,-3.541377485E-1,-9.044869542E-1,1.227757263E1
4.268871925E0,-3.254238665E-1,-8.829515576E-1,1.220818138E1
4.271282915E0,-3.254238665E-1,-8.518448472E-1,1.215075302E1
4.273693957E0,-3.134597540E-1,-8.231309652E-1,1.208854008E1
4.276104946E0,-3.110669553E-1,-8.111668825E-1,1.203829098E1
4.278515988E0,-3.062812984E-1,-7.920243144E-1,1.196411324E1
4.280926977E0,-3.038884699E-1,-7.776673436E-1,1.190190029E1
4.283338019E0,-2.991028428E-1,-7.513462901E-1,1.184686470E1
4.285749009E0,-3.014956415E-1,-7.130611539E-1,1.177029419E1
4.288160050E0,-3.038884699E-1,-6.915257573E-1,1.172004509E1
4.290571040E0,-3.062812984E-1,-6.628118753E-1,1.165065384E1
4.292982082E0,-3.110669553E-1,-6.460621357E-1,1.159322548E1
4.295393071E0,-3.038884699E-1,-6.221339107E-1,1.154058361E1
4.297804061E0,-3.134597540E-1,-6.053841114E-1,1.147119141E1
4.300215102E0,-3.134597540E-1,-5.790630579E-1,1.142094231E1
4.302626092E0,-3.158525825E-1,-5.455635786E-1,1.136830044E1
4.305037134E0,-3.278166950E-1,-5.216353536E-1,1.131565857E1
4.307448123E0,-3.254238665E-1,-5.048855543E-1,1.125344467E1
4.309859165E0,-3.421736360E-1,-4.905286431E-1,1.120319557E1
4.312270155E0,-3.445664644E-1,-4.498506486E-1,1.116012478E1
4.314681196E0,-3.613162339E-1,-4.211367965E-1,1.111466122E1
4.317092186E0,-3.732803464E-1,-3.948157430E-1,1.108833981E1
4.319503227E0,-3.900300860E-1,-3.541377485E-1,1.102373409E1
4.321914217E0,-3.876372576E-1,-3.445664644E-1,1.098066330E1
4.324325259E0,-4.043870270E-1,-3.302095234E-1,1.093519974E1
4.326736248E0,-4.115654826E-1,-2.967100143E-1,1.090409279E1
4.329147290E0,-4.115654826E-1,-2.536391914E-1,1.084666538E1
4.331558280E0,-4.259224236E-1,-2.297109663E-1,1.079880905E1
4.333969269E0,-4.402793646E-1,-2.033899277E-1,1.077248764E1
4.336380311E0,-4.570291340E-1,-1.866401732E-1,1.072702408E1
4.338791300E0,-4.642075896E-1,-1.627119333E-1,1.067677498E1
4.341202342E0,-4.785645306E-1,-1.579262912E-1,1.062652493E1
4.343613332E0,-4.785645306E-1,-1.220339537E-1,1.058584690E1
4.346024373E0,-5.000999570E-1,-1.052841991E-1,1.053799057E1
4.348435363E0,-5.048855543E-1,-6.939185411E-2,1.048295593E1
4.350846405E0,-5.120640397E-1,-4.785645381E-2,1.043749237E1
4.353257394E0,-5.288137794E-1,-1.914258115E-2,1.039681435E1
4.355668436E0,-5.312066078E-1,-9.571290575E-3,1.033699417E1
4.358079425E0,-5.335994363E-1,2.392822690E-2,1.027956581E1
4.360490467E0,-5.407779217E-1,5.503492057E-2,1.022931671E1
4.362901457E0,-5.431707501E-1,8.853443712E-2,1.017667484E1
4.365312446E0,-5.383850932E-1,1.052841991E-1,1.011446095E1
4.367723488E0,-5.431707501E-1,1.268195957E-1,1.006899738E1
4.370134477E0,-5.694918036E-1,1.363908947E-1,9.992427826E0
4.372545519E0,-5.647061467E-1,1.579262912E-1,9.923035622E0
4.374956509E0,-5.766702294E-1,1.770688742E-1,9.863214493E0
4.377367550E0,-5.790630579E-1,1.962114573E-1,9.801001549E0
4.379778540E0,-5.766702294E-1,2.129612118E-1,9.731609344E0
4.382189582E0,-5.670989752E-1,2.297109663E-1,9.667003632E0
4.384600571E0,-5.814558864E-1,2.392822653E-1,9.614361763E0
4.387011613E0,-5.838487148E-1,2.584248483E-1,9.552147865E0
4.389422602E0,-5.718846321E-1,2.799602449E-1,9.485149384E0
4.391833644E0,-5.670989752E-1,3.134597540E-1,9.439684868E0
4.394244634E0,-5.670989752E-1,3.349951804E-1,9.382257462E0
4.396655623E0,-5.766702294E-1,3.421736360E-1,9.322437286E0
4.399066665E0,-5.694918036E-1,3.421736360E-1,9.284152031E0
4.401477655E0,-5.551348329E-1,3.613162339E-1,9.226723671E0
4.403888696E0,-5.599204898E-1,3.661018610E-1,9.150154114E0
4.406299686E0,-5.431707501E-1,3.708875179E-1,9.104690552E0
4.408710727E0,-5.383850932E-1,3.924229145E-1,9.061619759E0
4.411121717E0,-5.192425251E-1,4.043870270E-1,9.008976936E0
4.413532759E0,-5.312066078E-1,4.235295951E-1,8.946763992E0
4.415943748E0,-5.288137794E-1,4.235295951E-1,8.910871506E0
4.418354790E0,-5.120640397E-1,4.307080805E-1,8.865407944E0
4.420765780E0,-5.120640397E-1,4.474578202E-1,8.831908226E0
4.423176769E0,-5.024927258E-1,4.570291340E-1,8.800801277E0
4.425587811E0,-5.000999570E-1,4.570291340E-1,8.764909744E0
4.427998800E0,-4.929214716E-1,4.642075896E-1,8.724231720E0
4.430409842E0,-4.905286431E-1,4.666004181E-1,8.693124771E0
4.432820832E0,-4.546363056E-1,4.713860750E-1,8.659625053E0
4.435231873E0,-4.378865361E-1,4.785645306E-1,8.630910873E0
4.437642863E0,-4.426721931E-1,4.785645306E-1,8.604590416E0
4.440053905E0,-4.402793646E-1,4.929214716E-1,8.597412109E0
4.442464894E0,-4.163511395E-1,5.024927258E-1,8.585447311E0
4.444875936E0,-4.043870270E-1,5.024927258E-1,8.566305161E0
4.447286925E0,-3.924229145E-1,4.953143001E-1,8.551948547E0
4.449697967E0,-3.924229145E-1,4.857429862E-1,8.535198212E0
4.452108957E0,-3.972085714E-1,4.881358147E-1,8.511270523E0
4.454519946E0,-3.780659735E-1,4.713860750E-1,8.513663292E0
4.456930988E0,-3.469592929E-1,4.713860750E-1,8.496912956E0
4.459341977E0,-3.326023519E-1,4.689932466E-1,8.492127419E0
4.461753019E0,-3.182454109E-1,4.642075896E-1,8.477770805E0
4.464164009E0,-3.158525825E-1,4.666004181E-1,8.472985268E0
4.466575050E0,-3.230310678E-1,4.809573591E-1,8.465806961E0
4.468986040E0,-3.158525825E-1,4.689932466E-1,8.468199730E0
4.471397082E0,-3.014956415E-1,4.737788737E-1,8.470592499E0
4.473808071E0,-3.038884699E-1,4.594219327E-1,8.456234932E0
4.476219113E0,-2.967100143E-1,4.402793646E-1,8.470592499E0
4.478630102E0,-2.775674164E-1,4.235295951E-1,8.461020470E0
4.481041144E0,-2.823530734E-1,4.235295951E-1,8.461020470E0
4.483452134E0,-2.632105052E-1,3.924229145E-1,8.463413239E0
4.485863123E0,-2.560320199E-1,4.019941986E-1,8.470592499E0
4.488274165E0,-2.416750938E-1,4.019941986E-1,8.461020470E0
4.490685155E0,-2.488535494E-1,3.900300860E-1,8.482556343E0
4.493096196E0,-2.249253243E-1,3.732803464E-1,8.482556343E0
4.495507186E0,-2.416750938E-1,3.517449200E-1,8.504091263E0
4.497918227E0,-2.249253243E-1,3.517449200E-1,8.506484032E0
4.500329217E0,-2.009970993E-1,3.349951804E-1,8.520841599E0
4.502740259E0,-1.938186288E-1,3.182454109E-1,8.532805443E0
4.505151248E0,-2.153540403E-1,2.967100143E-1,8.537590981E0
4.507562290E0,-2.105683982E-1,2.727817893E-1,8.547162056E0
4.509973280E0,-2.081755698E-1,2.632105052E-1,8.571090698E0
4.512384269E0,-2.153540403E-1,2.464607358E-1,8.597412109E0
4.514795311E0,-1.962114573E-1,2.249253243E-1,8.606983185E0
4.517206300E0,-1.938186288E-1,2.225325108E-1,8.626125336E0
4.519617342E0,-2.081755698E-1,1.938186288E-1,8.664410591E0
4.522028332E0,-2.177468538E-1,1.794617027E-1,8.693124771E0
4.524439373E0,-1.986042857E-1,1.674975902E-1,8.724231720E0
4.526850363E0,-2.081755698E-1,1.555334777E-1,8.755337715E0
4.529261405E0,-2.129612118E-1,1.292124242E-1,8.781659126E0
4.531672394E0,-2.249253243E-1,1.124626622E-1,8.819944382E0
4.534083436E0,-2.344966233E-1,9.571290761E-2,8.853444099E0
4.536494425E0,-2.368894368E-1,8.614161611E-2,8.891729355E0
4.538905467E0,-2.321037948E-1,6.221338734E-2,8.934800148E0
4.541316457E0,-2.440679073E-1,2.871387079E-2,8.963513374E0
4.543727446E0,-2.512463629E-1,2.153540403E-2,8.997013092E0
4.546138488E0,-2.512463629E-1,-1.435693540E-2,9.049654961E0
4.548549477E0,-2.727817893E-1,-3.828516230E-2,9.097511292E0
4.550960519E0,-2.799602449E-1,-4.785645381E-2,9.147761345E0
4.553371509E0,-2.943171859E-1,-6.221338734E-2,9.198010445E0
4.555782550E0,-2.991028428E-1,-8.853443712E-2,9.248259544E0
4.558193540E0,-3.086741269E-1,-1.076770201E-1,9.320044518E0
4.560604582E0,-3.302095234E-1,-1.363908947E-1,9.382257462E0
4.563015571E0,-3.230310678E-1,-1.483550072E-1,9.437292099E0
4.565426613E0,-3.445664644E-1,-1.962114573E-1,9.489934921E0
4.567837602E0,-3.517449200E-1,-2.081755698E-1,9.559326172E0
4.570248644E0,-3.565305769E-1,-2.392822653E-1,9.604789734E0
4.572659634E0,-3.661018610E-1,-2.560320199E-1,9.662218094E0
4.575070623E0,-3.852444589E-1,-2.560320199E-1,9.719645500E0
4.577481665E0,-3.996013701E-1,-2.823530734E-1,9.765109062E0
4.579892655E0,-4.043870270E-1,-3.158525825E-1,9.803394318E0
4.582303696E0,-4.163511395E-1,-3.326023519E-1,9.846465111E0
4.584714686E0,-4.307080805E-1,-3.517449200E-1,9.889535904E0
4.587125727E0,-4.402793646E-1,-3.852444589E-1,9.946963310E0
4.589536717E0,-4.498506486E-1,-4.067798555E-1,9.985248566E0
4.591947759E0,-4.498506486E-1,-4.354937077E-1,1.003310490E1
4.594358748E0,-4.570291340E-1,-4.618147612E-1,1.008335495E1
4.596769790E0,-4.929214716E-1,-4.713860750E-1,1.014317513E1
4.599180780E0,-4.833501875E-1,-4.977070987E-1,1.019342422E1
4.601591821E0,-4.977070987E-1,-5.096712112E-1,1.024845982E1
4.604002811E0,-5.335994363E-1,-5.455635786E-1,1.030349445E1
4.606413852E0,-5.335994363E-1,-5.766702294E-1,1.034417248E1
4.608824842E0,-5.527420044E-1,-6.125625968E-1,1.039442158E1
4.611235832E0,-5.551348329E-1,-6.077769399E-1,1.042074299E1
4.613646873E0,-5.623133183E-1,-6.317051649E-1,1.045902824E1
4.616057863E0,-5.694918036E-1,-6.364908218E-1,1.049013424E1
4.618468905E0,-5.670989752E-1,-6.556333899E-1,1.053081226E1
4.620879894E0,-5.790630579E-1,-6.771687865E-1,1.056909752E1
4.623290936E0,-5.886343718E-1,-6.939185858E-1,1.060738277E1
4.625701925E0,-6.053841114E-1,-7.202396393E-1,1.064806080E1
4.628112967E0,-6.053841114E-1,-7.537391186E-1,1.069591713E1
4.630523957E0,-6.245267391E-1,-7.680960894E-1,1.074616623E1
4.632934998E0,-6.101697683E-1,-7.824530005E-1,1.079402256E1
4.635345988E0,-6.053841114E-1,-8.087740541E-1,1.086102200E1
4.637756977E0,-5.982056856E-1,-8.255237937E-1,1.091605663E1
4.640168019E0,-6.149554253E-1,-8.494520187E-1,1.097109222E1
4.642579009E0,-6.149554253E-1,-8.781659007E-1,1.100937653E1
4.644990050E0,-6.221339107E-1,-8.901300430E-1,1.106680489E1
4.647401040E0,-6.340979934E-1,-9.260223508E-1,1.111705399E1
4.649812082E0,-6.364908218E-1,-9.475577474E-1,1.115055370E1
4.652223071E0,-6.269195080E-1,-9.547362328E-1,1.119841003E1
4.654634113E0,-6.149554253E-1,-9.714859724E-1,1.125583744E1
4.657045102E0,-6.269195080E-1,-9.882357717E-1,1.127976608E1
4.659456144E0,-6.197410822E-1,-1.014556766E0,1.132522964E1
4.661867134E0,-6.173482537E-1,-1.040877819E0,1.138983536E1
4.664278175E0,-6.149554253E-1,-1.057627559E0,1.143290615E1
4.666689165E0,-6.053841114E-1,-1.079162955E0,1.148794174E1
4.669100155E0,-5.886343718E-1,-1.091127157E0,1.153340530E1
4.671511196E0,-5.934200287E-1,-1.105484009E0,1.157886887E1
4.673922186E0,-5.862415433E-1,-1.110269666E0,1.163629627E1
4.676333227E0,-5.910272002E-1,-1.122233868E0,1.167458153E1
4.678744217E0,-5.910272002E-1,-1.146162033E0,1.171286678E1
4.681155259E0,-5.766702294E-1,-1.148554921E0,1.175833035E1
4.683566248E0,-5.742774606E-1,-1.148554921E0,1.178465176E1
4.685977290E0,-5.647061467E-1,-1.165304661E0,1.182054424E1
4.688388280E0,-5.575276613E-1,-1.191625714E0,1.185643578E1
4.690799321E0,-5.551348329E-1,-1.203589797E0,1.188514996E1
4.693210311E0,-5.383850932E-1,-1.201196909E0,1.190190029E1
4.695621352E0,-5.168496966E-1,-1.222732425E0,1.194497108E1
4.698032342E0,-5.120640397E-1,-1.227517962E0,1.196411324E1
4.700443332E0,-4.953143001E-1,-1.229910851E0,1.200479126E1
4.702854373E0,-4.761717021E-1,-1.241874933E0,1.203350544E1
4.705265363E0,-4.666004181E-1,-1.241874933E0,1.204546928E1
4.707676405E0,-4.642075896E-1,-1.256231904E0,1.208854008E1
4.710087394E0,-4.450650215E-1,-1.244267821E0,1.210050392E1
4.712498436E0,-4.378865361E-1,-1.241874933E0,1.210768223E1
4.714909425E0,-4.354937077E-1,-1.241874933E0,1.212203979E1
4.717320467E0,-4.139583111E-1,-1.246660590E0,1.213161087E1
4.719731457E0,-3.996013701E-1,-1.251446247E0,1.213878918E1
4.722142498E0,-3.900300860E-1,-1.261017561E0,1.216032505E1
4.724553488E0,-3.876372576E-1,-1.253839016E0,1.216271782E1
4.726964477E0,-3.948157430E-1,-1.241874933E0,1.216032505E1
4.729375519E0,-3.804588020E-1,-1.227517962E0,1.216989613E1
4.731786509E0,-3.756731451E-1,-1.225125194E0,1.217946720E1
4.734197550E0,-3.708875179E-1,-1.220339537E0,1.218185997E1
4.736608540E0,-3.637090325E-1,-1.196411371E0,1.219382381E1
4.739019582E0,-3.613162339E-1,-1.189232826E0,1.220578861E1
4.741430571E0,-3.397808075E-1,-1.182054400E0,1.219861031E1
4.743841613E0,-3.373879790E-1,-1.182054400E0,1.221296692E1
4.746252602E0,-3.421736360E-1,-1.158126116E0,1.221775246E1
4.748663644E0,-3.278166950E-1,-1.148554921E0,1.222971630E1
4.751074634E0,-3.302095234E-1,-1.129412293E0,1.223210907E1
4.753485675E0,-3.278166950E-1,-1.110269666E0,1.223450184E1
4.755896665E0,-3.230310678E-1,-1.103091240E0,1.223928738E1
4.758307655E0,-3.278166950E-1,-1.064806104E0,1.223210907E1
4.760718696E0,-3.230310678E-1,-1.043270707E0,1.223689461E1
4.763129686E0,-3.349951804E-1,-1.038485050E0,1.224168110E1
4.765540727E0,-3.373879790E-1,-1.009771109E0,1.224407387E1
4.767951717E0,-3.230310678E-1,-9.738788009E-1,1.226560879E1
4.770362759E0,-3.302095234E-1,-9.547362328E-1,1.225364494E1
4.772773748E0,-3.397808075E-1,-9.284151793E-1,1.226082325E1
4.775184790E0,-3.421736360E-1,-9.020941257E-1,1.226800156E1
4.777595780E0,-3.541377485E-1,-8.757730722E-1,1.227996540E1
4.780006821E0,-3.493520916E-1,-8.111668825E-1,1.228475189E1
4.782417811E0,-3.541377485E-1,-7.944171429E-1,1.227278709E1
4.784828852E0,-3.732803464E-1,-7.489534616E-1,1.227517986E1
4.787239842E0,-3.900300860E-1,-7.154539824E-1,1.227517986E1
4.789650832E0,-4.091726840E-1,-6.771687865E-1,1.228235817E1
4.792061873E0,-4.163511395E-1,-6.460621357E-1,1.226800156E1
4.794472863E0,-4.235295951E-1,-6.173482537E-1,1.226321602E1
4.796883905E0,-4.354937077E-1,-5.718846321E-1,1.226560879E1
4.799294894E0,-4.546363056E-1,-5.192425251E-1,1.225364494E1
4.801705936E0,-4.666004181E-1,-4.737788737E-1,1.224168110E1
4.804116925E0,-5.048855543E-1,-4.426721931E-1,1.222732353E1
4.806527967E0,-5.168496966E-1,-3.972085714E-1,1.221057415E1
4.808938957E0,-5.144568682E-1,-3.493520916E-1,1.220100307E1
4.811349998E0,-5.168496966E-1,-3.182454109E-1,1.219143105E1
4.813760988E0,-5.383850932E-1,-2.584248483E-1,1.217468166E1
4.816171977E0,-5.527420044E-1,-2.321037948E-1,1.214118195E1
4.818583019E0,-5.551348329E-1,-1.890329868E-1,1.212203979E1
4.820994009E0,-5.623133183E-1,-1.459621787E-1,1.208614731E1
4.823405050E0,-5.838487148E-1,-8.853443712E-2,1.205264759E1
4.825816040E0,-6.029912829E-1,-5.024927482E-2,1.203111267E1
4.828227082E0,-6.245267391E-1,4.785645287E-3,1.199761295E1
4.830638071E0,-6.364908218E-1,4.785645381E-2,1.196650600E1
4.833049113E0,-6.604190469E-1,1.028913707E-1,1.192822075E1
4.835460102E0,-6.628118753E-1,1.363908947E-1,1.188036442E1
4.837871144E0,-6.795616150E-1,1.938186288E-1,1.184207916E1
4.840282134E0,-6.867401004E-1,2.368894368E-1,1.180379391E1
4.842693175E0,-6.867401004E-1,2.608176768E-1,1.176311588E1
4.845104165E0,-7.010970116E-1,2.991028428E-1,1.172004509E1
4.847515155E0,-7.082754970E-1,3.445664644E-1,1.168893814E1
4.849926196E0,-7.010970116E-1,3.924229145E-1,1.164347458E1
4.852337186E0,-7.250252366E-1,4.307080805E-1,1.160279655E1
4.854748227E0,-7.322037220E-1,4.761717021E-1,1.156451225E1
4.857159217E0,-7.298108935E-1,5.144568682E-1,1.151665497E1
4.859570259E0,-7.369893789E-1,5.551348329E-1,1.147597694E1
4.861981248E0,-7.345965505E-1,5.910272002E-1,1.143769264E1
4.864392290E0,-7.298108935E-1,6.317051649E-1,1.141376400E1
4.866803280E0,-7.106683254E-1,6.867401004E-1,1.136590767E1
4.869214321E0,-7.226324677E-1,7.058826685E-1,1.134676456E1
4.871625311E0,-7.226324677E-1,7.369893789E-1,1.131565857E1
4.874036352E0,-6.867401004E-1,7.752745152E-1,1.128455162E1
4.876447342E0,-6.963114142E-1,7.944171429E-1,1.126301575E1
4.878858332E0,-6.963114142E-1,8.374879360E-1,1.123908806E1
4.881269373E0,-6.939185858E-1,8.685946465E-1,1.120558834E1
4.883680363E0,-6.747759581E-1,9.020941257E-1,1.119123173E1
4.886091405E0,-6.747759581E-1,9.284151793E-1,1.116730309E1
4.888502394E0,-6.508477330E-1,9.475577474E-1,1.116012478E1
4.890913436E0,-6.412764788E-1,9.834501147E-1,1.114337540E1
4.893324425E0,-6.388836503E-1,1.000199914E0,1.112662506E1
4.895735467E0,-6.173482537E-1,1.026520967E0,1.110987568E1
4.898146457E0,-5.958128572E-1,1.038485050E0,1.108594704E1
4.900557498E0,-5.814558864E-1,1.055234790E0,1.108355427E1
4.902968488E0,-5.647061467E-1,1.083948612E0,1.107876873E1
4.905379477E0,-5.503492355E-1,1.095912814E0,1.107159042E1
4.907790519E0,-5.503492355E-1,1.112662554E0,1.105962658E1
4.910201509E0,-5.335994363E-1,1.122233868E0,1.106441212E1
4.912612550E0,-5.144568682E-1,1.134197950E0,1.105723381E1
4.915023540E0,-5.168496966E-1,1.143769264E0,1.105723381E1
4.917434582E0,-5.024927258E-1,1.143769264E0,1.104526901E1
4.919845571E0,-4.953143001E-1,1.138983607E0,1.103330517E1
4.922256613E0,-4.594219327E-1,1.136590719E0,1.105244732E1
4.924667602E0,-4.618147612E-1,1.150947690E0,1.104766178E1
4.927078644E0,-4.307080805E-1,1.153340459E0,1.103809071E1
4.929489634E0,-4.163511395E-1,1.158126116E0,1.102851963E1
4.931900675E0,-4.115654826E-1,1.141376376E0,1.103091240E1
4.934311665E0,-4.043870270E-1,1.136590719E0,1.103091240E1
4.936722655E0,-3.828516304E-1,1.146162033E0,1.102851963E1
4.939133696E0,-3.637090325E-1,1.119840980E0,1.103091240E1
4.941544686E0,-3.541377485E-1,1.115055323E0,1.102851963E1
4.943955727E0,-3.517449200E-1,1.117448211E0,1.102851963E1
4.946366717E0,-3.278166950E-1,1.093519926E0,1.104287624E1
