"Time (s)","Gyroscope x (rad/s)","Gyroscope y (rad/s)","Gyroscope z (rad/s)"
7.799830300E-2,3.130682046E-3,-1.037706509E-1,-2.328158319E-1
8.040929300E-2,-1.214093715E-2,-1.068249792E-1,-2.438113987E-1
8.282033500E-2,-2.619082667E-2,-1.080467105E-1,-2.548069656E-1
8.523132400E-2,-3.901898861E-2,-1.086575761E-1,-2.633590698E-1
8.764236600E-2,-5.551233515E-2,-1.080467105E-1,-2.731329203E-1
9.005335500E-2,-7.017309219E-2,-1.056032479E-1,-2.804632783E-1
9.246439700E-2,-8.239039034E-2,-1.019380614E-1,-2.884045243E-1
9.487538700E-2,-9.521854669E-2,-9.705114365E-2,-2.951240540E-1
9.728637600E-2,-1.074358448E-1,-8.972076327E-2,-3.036761582E-1
9.969741800E-2,-1.196531355E-1,-8.300124854E-2,-3.122282624E-1
1.021084070E-1,-1.288161129E-1,-7.567087561E-2,-3.207803667E-1
1.045194490E-1,-1.367573589E-1,-6.650790572E-2,-3.287216127E-1
1.069304390E-1,-1.465311944E-1,-5.856665969E-2,-3.366628587E-1
1.093414800E-1,-1.520289779E-1,-4.757109284E-2,-3.427715003E-1
1.117524700E-1,-1.575267613E-1,-3.779725730E-2,-3.494910002E-1
1.141635120E-1,-1.630245447E-1,-2.863428742E-2,-3.555996716E-1
1.165745010E-1,-1.679114550E-1,-1.824958436E-2,-3.641517758E-1
1.189855430E-1,-1.721875072E-1,-9.086613543E-3,-3.696495593E-1
1.213965320E-1,-1.758527011E-1,6.872228696E-4,-3.757582009E-1
1.238075740E-1,-1.782961637E-1,1.168278884E-2,-3.818668425E-1
1.262185640E-1,-1.801287532E-1,2.084576152E-2,-3.879754841E-1
1.286296050E-1,-1.819613427E-1,3.061959706E-2,-3.922515512E-1
1.310405950E-1,-1.819613427E-1,3.917170316E-2,-3.983601928E-1
1.334516370E-1,-1.807396114E-1,4.833467677E-2,-4.050796926E-1
1.358626260E-1,-1.819613427E-1,5.444332212E-2,-4.105774760E-1
1.382736680E-1,-1.807396114E-1,6.238456443E-2,-4.179078639E-1
1.406846570E-1,-1.837939471E-1,6.666062027E-2,-4.240165055E-1
1.430956470E-1,-1.868482679E-1,7.215840369E-2,-4.295142889E-1
1.455066890E-1,-1.911243200E-1,7.704532146E-2,-4.313468933E-1
1.479176780E-1,-1.941786408E-1,8.071050793E-2,-4.313468933E-1
1.503287200E-1,-1.990655661E-1,8.193223923E-2,-4.289034307E-1
1.527397100E-1,-2.021198869E-1,8.132137358E-2,-4.258491099E-1
1.551507510E-1,-2.063959390E-1,8.132137358E-2,-4.209621847E-1
1.575617410E-1,-2.094502598E-1,8.071050793E-2,-4.148535430E-1
1.599727820E-1,-2.118937224E-1,7.704532146E-2,-4.099666178E-1
1.623837720E-1,-2.125045806E-1,7.338013500E-2,-4.063014388E-1
1.647948140E-1,-2.125045806E-1,6.604975462E-2,-4.026362598E-1
1.672058030E-1,-2.100611329E-1,6.055197120E-2,-3.989710510E-1
1.696168450E-1,-2.088394016E-1,5.261072889E-2,-3.959167302E-1
1.720278350E-1,-2.057850659E-1,4.283689335E-2,-3.928624094E-1
1.744388760E-1,-2.002872825E-1,3.367391974E-2,-3.910298049E-1
1.768498660E-1,-1.978438348E-1,2.451094985E-2,-3.885863721E-1
1.792608550E-1,-1.923460513E-1,1.290451828E-2,-3.849211633E-1
1.816718970E-1,-1.880699992E-1,2.519817324E-3,-3.824777007E-1
1.840828870E-1,-1.837939471E-1,-1.091920771E-2,-3.769799173E-1
1.864939280E-1,-1.764635593E-1,-2.252563834E-2,-3.739255965E-1
1.889049180E-1,-1.679114550E-1,-3.352120519E-2,-3.684278131E-1
1.913159600E-1,-1.611919403E-1,-4.634936526E-2,-3.647626340E-1
1.937269490E-1,-1.538615674E-1,-5.673406646E-2,-3.580431044E-1
1.961379910E-1,-1.483637840E-1,-6.956222653E-2,-3.507127464E-1
1.985489800E-1,-1.428660005E-1,-7.994692773E-2,-3.464366794E-1
2.009600220E-1,-1.355356276E-1,-8.972076327E-2,-3.378845751E-1
2.033710120E-1,-1.288161129E-1,-9.827287495E-2,-3.287216127E-1
2.057820530E-1,-1.214857325E-1,-1.062141135E-1,-3.195586503E-1
2.081930430E-1,-1.135444939E-1,-1.141553521E-1,-3.097847998E-1
2.106040850E-1,-1.049923822E-1,-1.208748668E-1,-2.987892330E-1
2.130150740E-1,-9.644027799E-2,-1.269835234E-1,-2.877936661E-1
2.154261160E-1,-8.544471115E-2,-1.318704337E-1,-2.767980993E-1
2.178371050E-1,-7.567087561E-2,-1.367573589E-1,-2.664133906E-1
2.202481470E-1,-6.406444311E-2,-1.392008066E-1,-2.548069656E-1
2.226591370E-1,-5.367974192E-2,-1.440877318E-1,-2.450331300E-1
2.250701260E-1,-3.901898861E-2,-1.422551423E-1,-2.346484363E-1
2.274811680E-1,-2.863428742E-2,-1.428660005E-1,-2.236528695E-1
2.298921570E-1,-1.886045001E-2,-1.404225379E-1,-2.120464295E-1
2.323031990E-1,-7.864884101E-3,-1.373682171E-1,-2.010508776E-1
2.347141890E-1,1.908952487E-3,-1.324812919E-1,-1.882227063E-1
2.371252300E-1,1.168278884E-2,-1.269835234E-1,-1.747836918E-1
2.395362200E-1,2.145662531E-2,-1.196531355E-1,-1.601229310E-1
2.419472620E-1,2.817613818E-2,-1.123227626E-1,-1.448513120E-1
2.443582510E-1,3.428478539E-2,-1.031597927E-1,-1.295796931E-1
2.467692930E-1,3.978256881E-2,-9.094249457E-2,-1.143080741E-1
2.491802820E-1,4.283689335E-2,-8.055779338E-2,-9.903645515E-2
2.515913240E-1,4.650207981E-2,-6.956222653E-2,-8.437569439E-2
2.540023140E-1,5.261072889E-2,-5.367974192E-2,-7.215840369E-2
2.564133550E-1,5.505418777E-2,-3.901898861E-2,-5.994110554E-2
2.588243450E-1,5.933023989E-2,-2.374736778E-2,-4.650207981E-2
2.612353350E-1,6.299543381E-2,-8.475748822E-3,-3.550651670E-2
2.636463760E-1,6.666062027E-2,6.795870606E-3,-2.573267929E-2
2.660573660E-1,6.910407543E-2,2.267835476E-2,-1.656970754E-2
2.684684070E-1,7.399099320E-2,3.856083751E-2,-8.628465235E-3
2.708793970E-1,7.643445581E-2,5.444332212E-2,-3.741546767E-3
2.732904390E-1,8.193223923E-2,6.788235158E-2,2.977965865E-3
2.757014280E-1,8.437569439E-2,8.254310489E-2,9.086613543E-3
2.781124700E-1,8.926261961E-2,9.598212689E-2,1.458439697E-2
2.805234600E-1,9.292780608E-2,1.088102907E-1,1.947131567E-2
2.829345010E-1,9.414953738E-2,1.204167232E-1,2.374736778E-2
2.853454910E-1,9.659299254E-2,1.314122826E-1,2.924515121E-2
2.877565320E-1,9.659299254E-2,1.411861181E-1,3.474293277E-2
2.901675220E-1,9.781472385E-2,1.485165060E-1,4.207331315E-2
2.925785640E-1,1.014799103E-1,1.576794684E-1,4.879282415E-2
2.949895530E-1,1.020907760E-1,1.625663936E-1,5.734493211E-2
2.974005950E-1,1.063668281E-1,1.680641770E-1,6.528617442E-2
2.998115850E-1,1.081994250E-1,1.711184978E-1,7.139482349E-2
3.022226260E-1,1.100320220E-1,1.735619605E-1,7.933606207E-2
3.046336160E-1,1.124754772E-1,1.741728187E-1,8.666644245E-2
3.070446050E-1,1.155297980E-1,1.760054082E-1,9.460768104E-2
3.094556470E-1,1.167515293E-1,1.735619605E-1,1.013271958E-1
3.118666370E-1,1.173623949E-1,1.717293561E-1,1.086575761E-1
3.142776780E-1,1.179732606E-1,1.686750352E-1,1.165988147E-1
3.166886680E-1,1.179732606E-1,1.656207144E-1,1.233183295E-1
3.190997100E-1,1.143080741E-1,1.589011997E-1,1.300378442E-1
3.215106990E-1,1.143080741E-1,1.540142894E-1,1.361464858E-1
3.239217410E-1,1.100320220E-1,1.448513120E-1,1.428660005E-1
3.263327300E-1,1.081994250E-1,1.387426704E-1,1.477529258E-1
3.287437720E-1,1.039233729E-1,1.301905513E-1,1.538615674E-1
3.311547620E-1,1.020907760E-1,1.198058575E-1,1.599702090E-1
3.335658030E-1,9.964732081E-2,1.094211563E-1,1.624136716E-1
3.359767930E-1,9.598212689E-2,9.659299254E-2,1.660788655E-1
3.383878350E-1,9.292780608E-2,8.620829135E-2,1.673005968E-1
3.407988240E-1,8.865175396E-2,7.399099320E-2,1.691331863E-1
3.432098660E-1,8.254310489E-2,5.994110554E-2,1.685223281E-1
3.456208550E-1,7.765618712E-2,4.650207981E-2,1.685223281E-1
3.480318450E-1,7.154753804E-2,3.367391974E-2,1.666897237E-1
3.504428870E-1,6.604975462E-2,2.023489587E-2,1.642462611E-1
3.528538760E-1,5.933023989E-2,6.795870606E-3,1.611919403E-1
3.552649180E-1,5.261072889E-2,-7.254019380E-3,1.581376195E-1
3.576759070E-1,4.711294547E-2,-2.008217946E-2,1.563050300E-1
3.600869490E-1,4.222602770E-2,-3.474293277E-2,1.532506943E-1
3.624979390E-1,3.917170316E-2,-4.634936526E-2,1.514181048E-1
3.649089800E-1,3.489565104E-2,-6.039925665E-2,1.483637840E-1
3.673199700E-1,3.184132650E-2,-7.261654735E-2,1.446985900E-1
3.697310120E-1,3.061959706E-2,-8.422297984E-2,1.416442692E-1
3.721420010E-1,2.878700197E-2,-9.460768104E-2,1.392008066E-1
3.745530430E-1,2.878700197E-2,-1.037706509E-1,1.373682171E-1
3.769640320E-1,2.695440874E-2,-1.123227626E-1,1.343138963E-1
3.793750740E-1,2.634354308E-2,-1.196531355E-1,1.312595755E-1
3.817860640E-1,2.451094985E-2,-1.257617921E-1,1.294269711E-1
3.841970530E-1,2.328922041E-2,-1.324812919E-1,1.269835234E-1
3.866080950E-1,2.267835476E-2,-1.349247545E-1,1.263726503E-1
3.890191370E-1,2.206749097E-2,-1.367573589E-1,1.257617921E-1
3.914301260E-1,2.023489587E-2,-1.385899484E-1,1.245400533E-1
3.938411160E-1,1.779143699E-2,-1.373682171E-1,1.233183295E-1
3.962521570E-1,1.534797717E-2,-1.349247545E-1,1.220965981E-1
3.986631470E-1,1.412624773E-2,-1.300378442E-1,1.227074638E-1
4.010741890E-1,1.168278884E-2,-1.245400533E-1,1.214857325E-1
4.034851780E-1,9.239329956E-3,-1.178205460E-1,1.202640012E-1
4.058962200E-1,8.017600514E-3,-1.068249792E-1,1.178205460E-1
4.083072100E-1,4.352411721E-3,-9.644027799E-2,1.172096804E-1
4.107182510E-1,1.298087649E-3,-8.422297984E-2,1.153770834E-1
4.131292410E-1,-1.756236190E-3,-7.139482349E-2,1.123227626E-1
4.155402820E-1,-7.254019380E-3,-5.612320080E-2,1.092684343E-1
4.179512720E-1,-1.275180187E-2,-4.146244749E-2,1.056032479E-1
4.203623140E-1,-1.824958436E-2,-2.435823344E-2,1.013271958E-1
4.227733030E-1,-2.619082667E-2,-7.864884101E-3,1.001054645E-1
4.251843450E-1,-3.291033953E-2,7.406735327E-3,9.827287495E-2
4.275953350E-1,-3.962985426E-2,2.267835476E-2,9.644027799E-2
4.300063760E-1,-4.451677203E-2,3.978256881E-2,9.521854669E-2
4.324173660E-1,-4.879282415E-2,5.505418777E-2,9.277509153E-2
4.348283550E-1,-5.490147322E-2,6.910407543E-2,9.033162892E-2
4.372393970E-1,-5.795579776E-2,8.193223923E-2,8.910989761E-2
4.396503870E-1,-6.223184988E-2,9.353867173E-2,8.788817376E-2
4.420614280E-1,-6.711876392E-2,1.033125073E-1,8.544471115E-2
4.444724180E-1,-6.895136088E-2,1.124754772E-1,8.422297984E-2
4.468834600E-1,-6.956222653E-2,1.185841262E-1,8.300124854E-2
4.492944490E-1,-7.200568914E-2,1.240819097E-1,8.239039034E-2
4.517054910E-1,-7.200568914E-2,1.289688200E-1,8.055779338E-2
4.541164800E-1,-7.261654735E-2,1.295796931E-1,8.055779338E-2
4.565275220E-1,-7.200568914E-2,1.308014244E-1,7.933606207E-2
4.589385120E-1,-7.078395784E-2,1.314122826E-1,7.994692773E-2
4.613495530E-1,-7.017309219E-2,1.283579618E-1,8.177952468E-2
4.637605430E-1,-6.772962958E-2,1.240819097E-1,8.300124854E-2
4.661715320E-1,-6.650790572E-2,1.216384470E-1,8.483384550E-2
4.685825740E-1,-6.467530876E-2,1.155297980E-1,8.910989761E-2
4.709936160E-1,-6.162098423E-2,1.094211563E-1,9.155336022E-2
4.734046050E-1,-6.039925665E-2,1.027016416E-1,9.705114365E-2
4.758155950E-1,-5.734493211E-2,9.414953738E-2,1.007163301E-1
4.782266370E-1,-5.551233515E-2,8.743002266E-2,1.062141135E-1
4.806376260E-1,-5.123628303E-2,7.826705277E-2,1.111010313E-1
4.830486680E-1,-5.001455545E-2,6.910407543E-2,1.159879491E-1
4.854596570E-1,-4.634936526E-2,5.810851231E-2,1.214857325E-1
4.878706990E-1,-4.207331315E-2,4.894553870E-2,1.251509190E-1
4.902816890E-1,-3.657552972E-2,3.856083751E-2,1.312595755E-1
4.926927300E-1,-3.474293277E-2,2.878700197E-2,1.349247545E-1
4.951037200E-1,-3.168861195E-2,1.779143699E-2,1.373682171E-1
4.975147620E-1,-2.741255611E-2,7.406735327E-3,1.404225379E-1
4.999257510E-1,-2.313650399E-2,-1.756236190E-3,1.434768587E-1
5.023367930E-1,-1.824958436E-2,-1.275180187E-2,1.459203213E-1
5.047477820E-1,-1.397353224E-2,-2.191477455E-2,1.483637840E-1
5.071588240E-1,-8.475748822E-3,-3.107774630E-2,1.477529258E-1
5.095698140E-1,-4.810560029E-3,-4.024071619E-2,1.495855153E-1
5.119808030E-1,-5.345066893E-4,-4.757109284E-2,1.489746422E-1
5.143918450E-1,4.963276442E-3,-5.612320080E-2,1.495855153E-1
5.168028350E-1,9.239329956E-3,-6.284271181E-2,1.471420527E-1
5.192138760E-1,1.656970754E-2,-6.895136088E-2,1.453094631E-1
5.216248660E-1,1.901316643E-2,-7.444914430E-2,1.434768587E-1
5.240359070E-1,2.634354308E-2,-7.689260691E-2,1.410334110E-1
5.264468970E-1,3.000873141E-2,-8.055779338E-2,1.392008066E-1
5.288579390E-1,3.550651670E-2,-8.055779338E-2,1.361464858E-1
5.312689280E-1,3.917170316E-2,-8.116865903E-2,1.324812919E-1
5.336799700E-1,4.161516204E-2,-7.933606207E-2,1.275943816E-1
5.360909600E-1,4.589121789E-2,-7.628174126E-2,1.239291951E-1
5.385020010E-1,4.833467677E-2,-7.444914430E-2,1.196531355E-1
5.409129910E-1,5.016727000E-2,-7.017309219E-2,1.141553521E-1
5.433240320E-1,5.383246019E-2,-6.345357746E-2,1.086575761E-1
5.457350220E-1,5.566505343E-2,-5.612320080E-2,1.043815166E-1
5.481460640E-1,5.749764666E-2,-4.940368980E-2,9.888373315E-2
5.505570530E-1,5.871937796E-2,-4.329504073E-2,9.338594973E-2
5.529680430E-1,5.749764666E-2,-3.413207084E-2,8.910989761E-2
5.553790850E-1,5.627591908E-2,-2.619082667E-2,8.361211419E-2
5.577900740E-1,5.627591908E-2,-1.702785492E-2,8.177952468E-2
5.602011160E-1,5.566505343E-2,-9.086613543E-3,7.872519642E-2
5.626121050E-1,5.566505343E-2,-5.345066893E-4,7.567087561E-2
5.650231470E-1,5.444332212E-2,1.046105940E-2,7.567087561E-2
5.674341370E-1,5.505418777E-2,1.779143699E-2,7.383827865E-2
5.698451780E-1,5.444332212E-2,2.573267929E-2,7.383827865E-2
5.722561680E-1,5.383246019E-2,3.550651670E-2,7.200568914E-2
5.746672100E-1,5.383246019E-2,4.222602770E-2,7.261654735E-2
5.770781990E-1,5.444332212E-2,5.199986324E-2,7.322741300E-2
5.794892410E-1,5.444332212E-2,5.810851231E-2,7.139482349E-2
5.819002300E-1,5.322159454E-2,6.421715766E-2,7.078395784E-2
5.843112720E-1,5.444332212E-2,7.154753804E-2,7.078395784E-2
5.867222620E-1,5.505418777E-2,7.582359016E-2,7.078395784E-2
5.891333030E-1,5.688678101E-2,8.254310489E-2,7.139482349E-2
5.915442930E-1,5.749764666E-2,8.620829135E-2,7.017309219E-2
5.939552820E-1,5.871937796E-2,9.231694043E-2,6.772962958E-2
5.963663240E-1,6.055197120E-2,9.659299254E-2,6.650790572E-2
5.987773140E-1,6.238456443E-2,9.964732081E-2,6.284271181E-2
6.011883550E-1,6.360629201E-2,1.002581790E-1,5.917752534E-2
6.035993450E-1,6.543888897E-2,1.020907760E-1,5.367974192E-2
6.060103870E-1,6.727148592E-2,1.057559624E-1,4.879282415E-2
6.084213760E-1,6.727148592E-2,1.063668281E-1,4.329504073E-2
6.108324180E-1,6.604975462E-2,1.069776937E-1,3.596466407E-2
6.132434070E-1,6.482802331E-2,1.081994250E-1,2.802342176E-2
6.156544490E-1,6.360629201E-2,1.106428802E-1,2.069304511E-2
6.180654390E-1,6.238456443E-2,1.118646115E-1,1.214093715E-2
6.204764800E-1,5.933023989E-2,1.100320220E-1,4.199695308E-3
6.228874700E-1,5.688678101E-2,1.100320220E-1,-1.908952487E-3
6.252985120E-1,5.444332212E-2,1.088102907E-1,-9.239329956E-3
6.277095010E-1,5.261072889E-2,1.081994250E-1,-1.473711245E-2
6.301205430E-1,4.894553870E-2,1.057559624E-1,-2.206749097E-2
6.325315320E-1,4.344775900E-2,1.045342386E-1,-2.817613818E-2
6.349425220E-1,3.978256881E-2,1.020907760E-1,-3.428478539E-2
6.373535640E-1,3.672824427E-2,9.903645515E-2,-4.161516204E-2
6.397645530E-1,3.306305781E-2,9.353867173E-2,-4.650207981E-2
6.421755950E-1,3.123046272E-2,9.048434347E-2,-5.261072889E-2
6.445865850E-1,2.756527252E-2,8.193223923E-2,-5.933023989E-2
6.469976260E-1,2.573267929E-2,7.521272451E-2,-6.604975462E-2
6.494086160E-1,2.206749097E-2,6.910407543E-2,-7.154753804E-2
6.518196570E-1,1.656970754E-2,6.055197120E-2,-7.704532146E-2
6.542306470E-1,1.168278884E-2,5.261072889E-2,-8.071050793E-2
6.566416890E-1,5.574141163E-3,4.283689335E-2,-8.620829135E-2
6.590526780E-1,-1.145371469E-3,3.428478539E-2,-8.926261961E-2
6.614637200E-1,-6.643154658E-3,2.573267929E-2,-9.109520912E-2
6.638747100E-1,-1.153007243E-2,1.534797717E-2,-9.109520912E-2
6.662857510E-1,-1.580612548E-2,4.352411721E-3,-9.231694043E-2
6.686967410E-1,-2.191477455E-2,-7.864884101E-3,-9.170607477E-2
6.711077820E-1,-2.619082667E-2,-1.824958436E-2,-9.048434347E-2
6.735187720E-1,-3.168861195E-2,-2.985601686E-2,-8.987347782E-2
6.759297620E-1,-3.413207084E-2,-4.085158184E-2,-8.926261961E-2
6.783408030E-1,-3.901898861E-2,-5.429060757E-2,-8.743002266E-2
6.807517930E-1,-4.329504073E-2,-6.711876392E-2,-8.498656005E-2
6.831628350E-1,-4.634936526E-2,-7.933606207E-2,-8.376483619E-2
6.855738240E-1,-4.940368980E-2,-9.094249457E-2,-8.132137358E-2
6.879848660E-1,-5.062541738E-2,-1.013271958E-1,-8.009964228E-2
6.903958550E-1,-5.306887627E-2,-1.123227626E-1,-7.582359016E-2
6.928068970E-1,-5.795579776E-2,-1.220965981E-1,-7.215840369E-2
6.952178870E-1,-5.978839099E-2,-1.300378442E-1,-6.910407543E-2
6.976289280E-1,-6.284271181E-2,-1.379790753E-1,-6.543888897E-2
7.000399180E-1,-6.528617442E-2,-1.440877318E-1,-6.177370250E-2
7.024509600E-1,-6.834049523E-2,-1.501963735E-1,-5.688678101E-2
7.048619490E-1,-6.834049523E-2,-1.544724256E-1,-5.322159454E-2
7.072729910E-1,-6.956222653E-2,-1.575267613E-1,-4.955640435E-2
7.096839800E-1,-7.078395784E-2,-1.587484777E-1,-4.528035223E-2
7.120949700E-1,-7.017309219E-2,-1.587484777E-1,-4.283689335E-2
7.145060120E-1,-7.200568914E-2,-1.599702090E-1,-3.978256881E-2
7.169170010E-1,-7.017309219E-2,-1.575267613E-1,-3.794997558E-2
7.193280430E-1,-6.895136088E-2,-1.544724256E-1,-3.733910993E-2
7.217390320E-1,-6.834049523E-2,-1.495855153E-1,-3.856083751E-2
7.241500740E-1,-6.528617442E-2,-1.446985900E-1,-3.978256881E-2
7.265610640E-1,-6.162098423E-2,-1.373682171E-1,-4.283689335E-2
7.289721050E-1,-5.917752534E-2,-1.318704337E-1,-4.466948658E-2
7.313830950E-1,-5.612320080E-2,-1.239291951E-1,-4.894553870E-2
7.337941370E-1,-5.062541738E-2,-1.165988147E-1,-5.322159454E-2
7.362051260E-1,-4.512763396E-2,-1.092684343E-1,-5.627591908E-2
7.386161680E-1,-3.901898861E-2,-1.001054645E-1,-6.238456443E-2
7.410271570E-1,-3.352120519E-2,-9.033162892E-2,-6.910407543E-2
7.434381990E-1,-2.863428742E-2,-8.116865903E-2,-7.276926935E-2
7.458491890E-1,-2.313650399E-2,-7.322741300E-2,-7.704532146E-2
7.482602300E-1,-1.947131567E-2,-6.345357746E-2,-8.193223923E-2
7.506712200E-1,-1.519526169E-2,-5.551233515E-2,-8.437569439E-2
7.530822100E-1,-1.336266659E-2,-4.696023092E-2,-8.620829135E-2
7.554932510E-1,-1.275180187E-2,-3.901898861E-2,-8.804088831E-2
7.579042410E-1,-1.153007243E-2,-3.229947388E-2,-8.804088831E-2
7.603152820E-1,-1.091920771E-2,-2.496909723E-2,-8.620829135E-2
7.627262720E-1,-1.091920771E-2,-1.824958436E-2,-8.498656005E-2
7.651373140E-1,-1.153007243E-2,-1.214093715E-2,-7.948877662E-2
7.675483030E-1,-1.153007243E-2,-6.032289471E-3,-7.643445581E-2
7.699593450E-1,-1.153007243E-2,-1.145371469E-3,-7.154753804E-2
7.723703350E-1,-1.275180187E-2,3.130682046E-3,-6.666062027E-2
7.747813760E-1,-1.030834299E-2,6.185005885E-3,-5.994110554E-2
7.771923660E-1,-1.030834299E-2,9.239329956E-3,-5.383246019E-2
7.796034070E-1,-1.091920771E-2,1.046105940E-2,-4.833467677E-2
7.820143970E-1,-7.254019380E-3,1.168278884E-2,-4.283689335E-2
7.844254390E-1,-4.199695308E-3,1.290451828E-2,-3.794997558E-2
7.868364280E-1,-3.588830587E-3,1.168278884E-2,-3.367391974E-2
7.892474180E-1,-2.367100911E-3,1.107192412E-2,-2.756527252E-2
7.916584600E-1,-1.145371469E-3,1.168278884E-2,-2.267835476E-2
7.940694490E-1,7.635809743E-5,1.107192412E-2,-1.840230078E-2
7.964804910E-1,7.635809743E-5,1.046105940E-2,-1.412624773E-2
7.988914800E-1,1.298087649E-3,9.850194678E-3,-9.850194678E-3
8.013025220E-1,6.872228696E-4,8.017600514E-3,-5.574141163E-3
8.037135120E-1,3.741546767E-3,8.017600514E-3,-2.519817324E-3
8.061245530E-1,4.352411721E-3,6.795870606E-3,1.145371469E-3
8.085355430E-1,4.963276442E-3,7.406735327E-3,1.756236190E-3
8.109465850E-1,6.185005885E-3,6.185005885E-3,1.756236190E-3
8.133575740E-1,8.628465235E-3,4.352411721E-3,5.345066893E-4
8.157686160E-1,9.850194678E-3,3.741546767E-3,-1.298087649E-3
8.181796050E-1,1.351538301E-2,3.130682046E-3,-3.130682046E-3
8.205906470E-1,1.656970754E-2,1.908952487E-3,-6.185005885E-3
8.230016370E-1,1.962403022E-2,1.908952487E-3,-1.107192412E-2
8.254126260E-1,2.451094985E-2,6.872228696E-4,-1.534797717E-2
8.278236680E-1,2.878700197E-2,7.635809743E-5,-2.145662531E-2
8.302346570E-1,3.306305781E-2,-5.345066893E-4,-2.573267929E-2
8.326456990E-1,3.794997558E-2,7.635809743E-5,-3.123046272E-2
8.350566890E-1,4.222602770E-2,6.872228696E-4,-3.672824427E-2
8.374677300E-1,4.528035223E-2,7.635809743E-5,-4.039343446E-2
8.398787200E-1,4.711294547E-2,7.635809743E-5,-4.405862093E-2
8.422897620E-1,5.077813566E-2,2.519817324E-3,-4.589121789E-2
8.447007510E-1,5.322159454E-2,3.130682046E-3,-4.772381112E-2
8.471117930E-1,5.566505343E-2,6.185005885E-3,-4.833467677E-2
8.495227820E-1,5.688678101E-2,6.795870606E-3,-4.955640435E-2
8.519338240E-1,5.688678101E-2,9.850194678E-3,-4.833467677E-2
8.543448140E-1,5.566505343E-2,1.229365356E-2,-4.894553870E-2
8.567558550E-1,5.688678101E-2,1.656970754E-2,-4.772381112E-2
8.591668450E-1,5.627591908E-2,2.023489587E-2,-4.650207981E-2
8.615778350E-1,5.261072889E-2,2.206749097E-2,-4.405862093E-2
8.639888760E-1,5.077813566E-2,2.634354308E-2,-4.344775900E-2
8.663998660E-1,4.772381112E-2,2.939786762E-2,-4.283689335E-2
8.688109070E-1,4.344775900E-2,3.367391974E-2,-4.161516204E-2
8.712218970E-1,3.917170316E-2,3.794997558E-2,-3.978256881E-2
8.736329390E-1,3.489565104E-2,4.039343446E-2,-3.856083751E-2
8.760439280E-1,3.123046272E-2,4.222602770E-2,-3.856083751E-2
8.784549700E-1,2.634354308E-2,4.344775900E-2,-3.917170316E-2
8.808659600E-1,2.206749097E-2,4.466948658E-2,-4.039343446E-2
8.832770010E-1,1.718057133E-2,4.772381112E-2,-4.161516204E-2
8.856879910E-1,1.412624773E-2,4.894553870E-2,-4.283689335E-2
8.880990320E-1,9.239329956E-3,4.955640435E-2,-4.528035223E-2
8.905100220E-1,6.795870606E-3,5.016727000E-2,-4.589121789E-2
8.929210640E-1,2.519817324E-3,4.894553870E-2,-4.711294547E-2
8.953320530E-1,-1.145371469E-3,4.833467677E-2,-5.016727000E-2
8.977430950E-1,-4.810560029E-3,4.528035223E-2,-5.261072889E-2
9.001540850E-1,-8.475748822E-3,4.222602770E-2,-5.566505343E-2
9.025651260E-1,-1.275180187E-2,3.978256881E-2,-5.933023989E-2
9.049761160E-1,-1.641699113E-2,3.550651670E-2,-6.177370250E-2
9.073871050E-1,-2.191477455E-2,3.061959706E-2,-6.360629201E-2
9.097981470E-1,-2.496909723E-2,2.817613818E-2,-6.666062027E-2
9.122091370E-1,-2.863428742E-2,2.206749097E-2,-6.727148592E-2
9.146201780E-1,-3.107774630E-2,1.656970754E-2,-6.971494108E-2
9.170311680E-1,-3.474293277E-2,1.046105940E-2,-7.215840369E-2
9.194422100E-1,-3.535379842E-2,6.185005885E-3,-7.582359016E-2
9.218531990E-1,-3.840812296E-2,6.872228696E-4,-7.948877662E-2
9.242642410E-1,-4.085158184E-2,-5.421424750E-3,-8.376483619E-2
9.266752300E-1,-4.146244749E-2,-1.030834299E-2,-8.743002266E-2
9.290862720E-1,-4.146244749E-2,-1.519526169E-2,-9.170607477E-2
9.314972620E-1,-4.085158184E-2,-2.069304511E-2,-9.781472385E-2
9.339083030E-1,-4.085158184E-2,-2.619082667E-2,-1.014799103E-1
9.363192930E-1,-3.901898861E-2,-3.107774630E-2,-1.063668281E-1
9.387303350E-1,-3.901898861E-2,-3.413207084E-2,-1.106428802E-1
9.411413240E-1,-3.779725730E-2,-3.779725730E-2,-1.124754772E-1
9.435523660E-1,-3.657552972E-2,-4.085158184E-2,-1.155297980E-1
9.459633550E-1,-3.474293277E-2,-4.329504073E-2,-1.161406636E-1
9.483743450E-1,-3.474293277E-2,-4.573849961E-2,-1.155297980E-1
9.507853870E-1,-3.168861195E-2,-4.757109284E-2,-1.167515293E-1
9.531963760E-1,-2.924515121E-2,-4.940368980E-2,-1.155297980E-1
9.556074180E-1,-2.863428742E-2,-5.001455545E-2,-1.124754772E-1
9.580184070E-1,-2.802342176E-2,-5.123628303E-2,-1.081994250E-1
9.604294490E-1,-2.741255611E-2,-5.306887627E-2,-1.039233729E-1
9.628404390E-1,-2.435823344E-2,-5.123628303E-2,-9.842558950E-2
9.652514800E-1,-2.313650399E-2,-5.245801434E-2,-9.353867173E-2
9.676624700E-1,-2.252563834E-2,-5.245801434E-2,-8.620829135E-2
9.700735120E-1,-2.130390890E-2,-5.062541738E-2,-7.765618712E-2
9.724845010E-1,-1.824958436E-2,-4.879282415E-2,-7.032580674E-2
9.748955430E-1,-1.641699113E-2,-4.879282415E-2,-6.421715766E-2
9.773065320E-1,-1.458439697E-2,-4.940368980E-2,-5.505418777E-2
9.797175220E-1,-1.336266659E-2,-4.818195850E-2,-4.711294547E-2
9.821285640E-1,-1.336266659E-2,-4.512763396E-2,-4.161516204E-2
9.845395530E-1,-1.214093715E-2,-4.329504073E-2,-3.428478539E-2
9.869505950E-1,-1.030834299E-2,-4.024071619E-2,-2.817613818E-2
9.893615850E-1,-1.030834299E-2,-3.840812296E-2,-2.084576152E-2
9.917726260E-1,-8.475748822E-3,-3.291033953E-2,-1.473711245E-2
9.941836160E-1,-6.643154658E-3,-2.924515121E-2,-8.628465235E-3
9.965946570E-1,-7.254019380E-3,-2.374736778E-2,-4.352411721E-3
9.990056470E-1,-5.421424750E-3,-2.008217946E-2,2.367100911E-3
1.001416689E0,-1.756236190E-3,-1.458439697E-2,8.475748822E-3
1.003827678E0,7.635809743E-5,-8.475748822E-3,1.458439697E-2
1.006238720E0,2.519817324E-3,-2.367100911E-3,1.947131567E-2
1.008649710E0,6.795870606E-3,4.963276442E-3,2.313650399E-2
1.011060699E0,1.168278884E-2,1.168278884E-2,2.741255611E-2
1.013471741E0,1.718057133E-2,2.145662531E-2,3.229947388E-2
1.015882782E0,2.206749097E-2,3.061959706E-2,3.718639165E-2
1.018293772E0,2.695440874E-2,3.917170316E-2,3.962985426E-2
1.020704814E0,3.306305781E-2,4.894553870E-2,4.268417507E-2
1.023115803E0,3.794997558E-2,6.116283685E-2,4.696023092E-2
1.025526793E0,4.344775900E-2,7.215840369E-2,5.062541738E-2
1.027937835E0,5.077813566E-2,8.437569439E-2,5.429060757E-2
1.030348824E0,5.627591908E-2,9.659299254E-2,5.734493211E-2
1.032759866E0,6.360629201E-2,1.100320220E-1,6.101011857E-2
1.035170855E0,6.849320978E-2,1.228601784E-1,6.528617442E-2
1.037581897E0,7.460185885E-2,1.375209391E-1,6.772962958E-2
1.039992887E0,8.009964228E-2,1.503490955E-1,6.956222653E-2
1.042403928E0,8.681915700E-2,1.656207144E-1,7.078395784E-2
1.044814918E0,9.292780608E-2,1.790597439E-1,7.200568914E-2
1.047225960E0,9.842558950E-2,1.943313628E-1,7.444914430E-2
1.049636949E0,1.008690447E-1,2.065486610E-1,7.383827865E-2
1.052047991E0,1.039233729E-1,2.175442129E-1,7.261654735E-2
1.054458980E0,1.081994250E-1,2.285397798E-1,7.139482349E-2
1.056869970E0,1.088102907E-1,2.377027571E-1,6.711876392E-2
1.059281012E0,1.094211563E-1,2.450331300E-1,6.345357746E-2
1.061692053E0,1.100320220E-1,2.505309284E-1,6.039925665E-2
1.064103043E0,1.112537459E-1,2.548069656E-1,5.917752534E-2
1.066514032E0,1.112537459E-1,2.560287118E-1,5.673406646E-2
1.068925074E0,1.106428802E-1,2.560287118E-1,5.306887627E-2
1.071336064E0,1.130863428E-1,2.529743910E-1,4.940368980E-2
1.073747105E0,1.124754772E-1,2.480874658E-1,4.634936526E-2
1.076158095E0,1.112537459E-1,2.407570779E-1,4.146244749E-2
1.078569137E0,1.124754772E-1,2.315941155E-1,3.779725730E-2
1.080980126E0,1.094211563E-1,2.193768173E-1,3.168861195E-2
1.083391168E0,1.069776937E-1,2.059377879E-1,2.680169232E-2
1.085802157E0,1.057559624E-1,1.924987584E-1,2.313650399E-2
1.088213199E0,1.020907760E-1,1.753945500E-1,1.824958436E-2
1.090624189E0,9.781472385E-2,1.570686102E-1,1.458439697E-2
1.093035230E0,9.231694043E-2,1.369100660E-1,1.336266659E-2
1.095446220E0,8.559742570E-2,1.185841262E-1,9.086613543E-3
1.097857210E0,7.826705277E-2,9.781472385E-2,6.643154658E-3
1.100268251E0,7.032580674E-2,7.765618712E-2,5.421424750E-3
1.102679241E0,6.177370250E-2,5.749764666E-2,2.977965865E-3
1.105090282E0,5.199986324E-2,3.428478539E-2,1.756236190E-3
1.107501272E0,4.161516204E-2,1.290451828E-2,1.145371469E-3
1.109912314E0,3.061959706E-2,-8.475748822E-3,-6.872228696E-4
1.112323303E0,1.962403022E-2,-2.985601686E-2,-6.872228696E-4
1.114734345E0,8.017600514E-3,-4.940368980E-2,-6.872228696E-4
1.117145335E0,-4.810560029E-3,-6.895136088E-2,-1.298087649E-3
1.119556376E0,-1.458439697E-2,-8.605557680E-2,-1.908952487E-3
1.121967366E0,-2.435823344E-2,-1.037706509E-1,-2.519817324E-3
1.124378407E0,-3.352120519E-2,-1.184314117E-1,-3.130682046E-3
1.126789397E0,-4.329504073E-2,-1.349247545E-1,-4.352411721E-3
1.129200439E0,-5.123628303E-2,-1.471420527E-1,-3.741546767E-3
1.131611428E0,-5.856665969E-2,-1.575267613E-1,-3.130682046E-3
1.134022418E0,-6.528617442E-2,-1.685223281E-1,-4.352411721E-3
1.136433460E0,-7.200568914E-2,-1.752418280E-1,-3.130682046E-3
1.138844449E0,-7.872519642E-2,-1.801287532E-1,-1.908952487E-3
1.141255491E0,-8.361211419E-2,-1.831830740E-1,-7.635809743E-5
1.143666480E0,-9.033162892E-2,-1.880699992E-1,1.145371469E-3
1.146077522E0,-9.216422588E-2,-1.862373948E-1,3.588830587E-3
1.148488512E0,-9.644027799E-2,-1.874591261E-1,5.421424750E-3
1.150899553E0,-9.827287495E-2,-1.837939471E-1,7.254019380E-3
1.153310543E0,-1.001054645E-1,-1.776852906E-1,8.475748822E-3
1.155721585E0,-9.888373315E-2,-1.703549176E-1,1.091920771E-2
1.158132574E0,-9.827287495E-2,-1.642462611E-1,1.275180187E-2
1.160543616E0,-9.766200930E-2,-1.556941569E-1,1.336266659E-2
1.162954605E0,-9.644027799E-2,-1.465311944E-1,1.458439697E-2
1.165365647E0,-9.277509153E-2,-1.361464858E-1,1.458439697E-2
1.167776637E0,-9.033162892E-2,-1.233183295E-1,1.458439697E-2
1.170187678E0,-8.727730811E-2,-1.129336283E-1,1.458439697E-2
1.172598668E0,-7.933606207E-2,-9.766200930E-2,1.397353224E-2
1.175009657E0,-7.628174126E-2,-8.727730811E-2,1.519526169E-2
1.177420699E0,-6.834049523E-2,-7.322741300E-2,1.458439697E-2
1.179831689E0,-5.978839099E-2,-5.978839099E-2,1.519526169E-2
1.182242730E0,-5.184714869E-2,-4.818195850E-2,1.580612548E-2
1.184653720E0,-4.390590638E-2,-3.413207084E-2,1.580612548E-2
1.187064762E0,-3.718639165E-2,-2.374736778E-2,1.580612548E-2
1.189475751E0,-2.863428742E-2,-1.091920771E-2,1.824958436E-2
1.191886793E0,-1.886045001E-2,-2.367100911E-3,1.763872057E-2
1.194297782E0,-1.153007243E-2,8.628465235E-3,2.008217946E-2
1.196708824E0,-2.367100911E-3,1.718057133E-2,2.313650399E-2
1.199119814E0,6.795870606E-3,2.634354308E-2,2.496909723E-2
1.201530855E0,1.595884189E-2,3.428478539E-2,2.802342176E-2
1.203941845E0,2.451094985E-2,4.039343446E-2,3.229947388E-2
1.206352887E0,3.306305781E-2,4.466948658E-2,3.901898861E-2
1.208763876E0,4.161516204E-2,4.955640435E-2,4.329504073E-2
1.211174866E0,4.650207981E-2,5.199986324E-2,4.879282415E-2
1.213585907E0,5.138900131E-2,5.444332212E-2,5.490147322E-2
1.215996897E0,5.688678101E-2,5.871937796E-2,6.406444311E-2
1.218407939E0,5.994110554E-2,6.116283685E-2,7.567087561E-2
1.220818928E0,6.421715766E-2,6.421715766E-2,8.788817376E-2
1.223229970E0,6.604975462E-2,6.543888897E-2,9.949459881E-2
1.225640960E0,6.727148592E-2,6.727148592E-2,1.123227626E-1
1.228052001E0,6.910407543E-2,6.910407543E-2,1.269835234E-1
1.230462991E0,7.032580674E-2,7.032580674E-2,1.410334110E-1
1.232874032E0,7.154753804E-2,7.276926935E-2,1.544724256E-1
1.235285022E0,7.399099320E-2,7.276926935E-2,1.660788655E-1
1.237696064E0,7.765618712E-2,7.399099320E-2,1.776852906E-1
1.240107053E0,7.948877662E-2,7.521272451E-2,1.880699992E-1
1.242518043E0,8.315397054E-2,7.521272451E-2,1.972329617E-1
1.244929085E0,8.926261961E-2,7.582359016E-2,2.051742077E-1
1.247340074E0,9.353867173E-2,7.582359016E-2,2.125045806E-1
1.249751116E0,9.781472385E-2,7.643445581E-2,2.173915058E-1
1.252162105E0,1.027016416E-1,7.765618712E-2,2.204458266E-1
1.254573147E0,1.075885594E-1,7.826705277E-2,2.204458266E-1
1.256984137E0,1.124754772E-1,7.887791097E-2,2.210566849E-1
1.259395178E0,1.167515293E-1,8.009964228E-2,2.204458266E-1
1.261806168E0,1.210275814E-1,8.071050793E-2,2.167806327E-1
1.264217210E0,1.253036410E-1,8.071050793E-2,2.137263119E-1
1.266628199E0,1.308014244E-1,8.376483619E-2,2.082285285E-1
1.269039241E0,1.344666034E-1,8.437569439E-2,2.021198869E-1
1.271450230E0,1.375209391E-1,8.498656005E-2,1.954003721E-1
1.273861272E0,1.399643868E-1,8.620829135E-2,1.874591261E-1
1.276272262E0,1.417969912E-1,8.804088831E-2,1.782961637E-1
1.278683303E0,1.424078494E-1,8.987347782E-2,1.685223281E-1
1.281094293E0,1.430187225E-1,9.048434347E-2,1.587484777E-1
1.283505282E0,1.399643868E-1,9.109520912E-2,1.477529258E-1
1.285916324E0,1.393535286E-1,9.353867173E-2,1.355356276E-1
1.288327366E0,1.362992078E-1,9.414953738E-2,1.227074638E-1
1.290738355E0,1.314122826E-1,9.231694043E-2,1.104901657E-1
1.293149345E0,1.253036410E-1,9.170607477E-2,9.888373315E-2
1.295560387E0,1.185841262E-1,9.170607477E-2,8.666644245E-2
1.297971376E0,1.112537459E-1,9.170607477E-2,7.628174126E-2
1.300382418E0,1.027016416E-1,8.987347782E-2,6.650790572E-2
1.302793407E0,9.109520912E-2,8.804088831E-2,5.917752534E-2
1.305204449E0,8.009964228E-2,8.620829135E-2,5.123628303E-2
1.307615439E0,6.971494108E-2,8.193223923E-2,4.757109284E-2
1.310026480E0,5.994110554E-2,7.826705277E-2,4.268417507E-2
1.312437470E0,4.955640435E-2,7.582359016E-2,3.962985426E-2
1.314848512E0,3.856083751E-2,7.276926935E-2,3.779725730E-2
1.317259501E0,2.695440874E-2,6.666062027E-2,3.718639165E-2
1.319670543E0,1.595884189E-2,6.116283685E-2,3.596466407E-2
1.322081532E0,4.352411721E-3,5.505418777E-2,3.535379842E-2
1.324492522E0,-6.643154658E-3,4.833467677E-2,3.535379842E-2
1.326903564E0,-1.641699113E-2,4.283689335E-2,3.535379842E-2
1.329314553E0,-2.557996288E-2,3.611737862E-2,3.535379842E-2
1.331725595E0,-3.718639165E-2,2.878700197E-2,3.474293277E-2
1.334136585E0,-4.879282415E-2,2.084576152E-2,3.535379842E-2
1.336547626E0,-5.734493211E-2,1.412624773E-2,3.596466407E-2
1.338958616E0,-6.650790572E-2,5.574141163E-3,3.535379842E-2
1.341369657E0,-7.506000996E-2,-1.145371469E-3,3.657552972E-2
1.343780647E0,-8.422297984E-2,-9.697478265E-3,3.535379842E-2
1.346191689E0,-9.094249457E-2,-1.763872057E-2,3.352120519E-2
1.348602678E0,-9.827287495E-2,-2.557996288E-2,3.229947388E-2
1.351013720E0,-1.062141135E-1,-3.474293277E-2,2.924515121E-2
1.353424710E0,-1.117118970E-1,-4.207331315E-2,2.557996288E-2
1.355835751E0,-1.165988147E-1,-5.062541738E-2,2.069304511E-2
1.358246741E0,-1.196531355E-1,-5.856665969E-2,1.702785492E-2
1.360657782E0,-1.245400533E-1,-6.528617442E-2,1.275180187E-2
1.363068772E0,-1.282052398E-1,-7.383827865E-2,6.643154658E-3
1.365479762E0,-1.294269711E-1,-7.994692773E-2,5.345066893E-4
1.367890803E0,-1.312595755E-1,-8.788817376E-2,-5.574141163E-3
1.370301793E0,-1.330921650E-1,-9.460768104E-2,-1.168278884E-2
1.372712835E0,-1.361464858E-1,-1.013271958E-1,-1.779143699E-2
1.375123824E0,-1.373682171E-1,-1.056032479E-1,-2.328922041E-2
1.377534866E0,-1.392008066E-1,-1.117118970E-1,-3.123046272E-2
1.379945855E0,-1.392008066E-1,-1.172096804E-1,-3.733910993E-2
1.382356897E0,-1.398116797E-1,-1.233183295E-1,-4.100430012E-2
1.384767887E0,-1.392008066E-1,-1.275943816E-1,-4.528035223E-2
1.387178928E0,-1.416442692E-1,-1.318704337E-1,-4.833467677E-2
1.389589918E0,-1.392008066E-1,-1.337030232E-1,-5.199986324E-2
1.392000907E0,-1.392008066E-1,-1.379790753E-1,-5.383246019E-2
1.394411949E0,-1.373682171E-1,-1.392008066E-1,-5.322159454E-2
1.396822939E0,-1.373682171E-1,-1.422551423E-1,-5.261072889E-2
1.399233980E0,-1.355356276E-1,-1.434768587E-1,-5.199986324E-2
1.401644970E0,-1.349247545E-1,-1.440877318E-1,-5.016727000E-2
1.404056012E0,-1.330921650E-1,-1.434768587E-1,-4.650207981E-2
1.406467001E0,-1.318704337E-1,-1.422551423E-1,-4.161516204E-2
1.408878043E0,-1.312595755E-1,-1.416442692E-1,-3.672824427E-2
1.411289032E0,-1.288161129E-1,-1.404225379E-1,-3.306305781E-2
1.413700074E0,-1.269835234E-1,-1.373682171E-1,-2.573267929E-2
1.416111064E0,-1.233183295E-1,-1.343138963E-1,-1.962403022E-2
1.418522105E0,-1.202640012E-1,-1.306487024E-1,-1.412624773E-2
1.420933095E0,-1.147662178E-1,-1.275943816E-1,-7.406735327E-3
1.423344137E0,-1.098793000E-1,-1.233183295E-1,-4.352411721E-3
1.425755126E0,-1.043815166E-1,-1.184314117E-1,2.367100911E-3
1.428166168E0,-9.827287495E-2,-1.153770834E-1,7.864884101E-3
1.430577157E0,-9.277509153E-2,-1.104901657E-1,1.275180187E-2
1.432988147E0,-8.605557680E-2,-1.068249792E-1,1.641699113E-2
1.435399189E0,-7.994692773E-2,-9.949459881E-2,2.069304511E-2
1.437810178E0,-7.017309219E-2,-9.338594973E-2,2.496909723E-2
1.440221220E0,-6.223184988E-2,-8.788817376E-2,2.863428742E-2
1.442632210E0,-5.429060757E-2,-8.177952468E-2,3.168861195E-2
1.445043251E0,-4.451677203E-2,-7.261654735E-2,3.352120519E-2
1.447454241E0,-3.596466407E-2,-6.528617442E-2,3.535379842E-2
1.449865282E0,-2.680169232E-2,-5.306887627E-2,3.657552972E-2
1.452276272E0,-2.008217946E-2,-4.512763396E-2,3.779725730E-2
1.454687314E0,-1.153007243E-2,-3.352120519E-2,3.901898861E-2
1.457098303E0,-4.810560029E-3,-2.191477455E-2,3.840812296E-2
1.459509345E0,1.908952487E-3,-9.697478265E-3,3.474293277E-2
1.461920335E0,8.017600514E-3,4.352411721E-3,3.168861195E-2
1.464331376E0,1.534797717E-2,1.779143699E-2,2.924515121E-2
1.466742366E0,2.145662531E-2,3.123046272E-2,2.496909723E-2
1.469153407E0,2.573267929E-2,4.405862093E-2,1.947131567E-2
1.471564397E0,2.939786762E-2,5.749764666E-2,1.397353224E-2
1.473975387E0,3.245219216E-2,7.093667239E-2,9.697478265E-3
1.476386428E0,3.184132650E-2,8.315397054E-2,2.367100911E-3
1.478797418E0,3.245219216E-2,9.598212689E-2,-4.963276442E-3
1.481208460E0,3.245219216E-2,1.094211563E-1,-1.107192412E-2
1.483619449E0,3.000873141E-2,1.204167232E-1,-1.779143699E-2
1.486030491E0,2.634354308E-2,1.314122826E-1,-2.512181364E-2
1.488441480E0,2.145662531E-2,1.399643868E-1,-3.245219216E-2
1.490852522E0,1.840230078E-2,1.503490955E-1,-3.794997558E-2
1.493263512E0,1.351538301E-2,1.601229310E-1,-4.283689335E-2
1.495674553E0,8.017600514E-3,1.680641770E-1,-4.894553870E-2
1.498085543E0,1.908952487E-3,1.729510874E-1,-5.199986324E-2
1.500496585E0,-2.977965865E-3,1.778380126E-1,-5.505418777E-2
1.502907574E0,-1.030834299E-2,1.821140647E-1,-5.933023989E-2
1.505318564E0,-1.519526169E-2,1.839466542E-1,-6.238456443E-2
1.507729605E0,-2.191477455E-2,1.839466542E-1,-6.482802331E-2
1.510140595E0,-2.802342176E-2,1.815031916E-1,-6.849320978E-2
1.512551637E0,-3.229947388E-2,1.784488708E-1,-7.032580674E-2
1.514962626E0,-3.779725730E-2,1.729510874E-1,-7.093667239E-2
1.517373668E0,-4.146244749E-2,1.656207144E-1,-7.276926935E-2
1.519784657E0,-4.512763396E-2,1.589011997E-1,-7.276926935E-2
1.522195699E0,-4.940368980E-2,1.497382224E-1,-7.276926935E-2
1.524606689E0,-5.306887627E-2,1.375209391E-1,-7.276926935E-2
1.527017730E0,-5.490147322E-2,1.240819097E-1,-7.154753804E-2
1.529428720E0,-5.856665969E-2,1.094211563E-1,-7.093667239E-2
1.531839762E0,-6.039925665E-2,9.537126124E-2,-7.154753804E-2
1.534250751E0,-6.223184988E-2,7.887791097E-2,-7.032580674E-2
1.536661793E0,-6.284271181E-2,6.238456443E-2,-7.032580674E-2
1.539072782E0,-6.528617442E-2,4.466948658E-2,-6.727148592E-2
1.541483772E0,-6.589704007E-2,2.878700197E-2,-6.604975462E-2
1.543894814E0,-6.528617442E-2,1.290451828E-2,-6.360629201E-2
1.546305803E0,-6.650790572E-2,-3.588830587E-3,-6.116283685E-2
1.548716845E0,-6.650790572E-2,-1.824958436E-2,-5.810851231E-2
1.551127835E0,-6.711876392E-2,-3.413207084E-2,-5.444332212E-2
1.553538876E0,-6.711876392E-2,-4.696023092E-2,-5.322159454E-2
1.555949866E0,-6.650790572E-2,-6.101011857E-2,-5.138900131E-2
1.558360907E0,-6.345357746E-2,-7.506000996E-2,-4.894553870E-2
1.560771897E0,-6.101011857E-2,-8.666644245E-2,-4.833467677E-2
1.563182939E0,-5.734493211E-2,-9.582941234E-2,-4.772381112E-2
1.565593928E0,-5.490147322E-2,-1.049923822E-1,-5.016727000E-2
1.568004970E0,-4.940368980E-2,-1.123227626E-1,-5.261072889E-2
1.570415960E0,-4.329504073E-2,-1.190422773E-1,-5.627591908E-2
1.572826949E0,-3.840812296E-2,-1.251509190E-1,-5.871937796E-2
1.575237991E0,-3.168861195E-2,-1.294269711E-1,-6.299543381E-2
1.577648980E0,-2.435823344E-2,-1.306487024E-1,-6.788235158E-2
1.580060022E0,-2.008217946E-2,-1.312595755E-1,-7.215840369E-2
1.582471012E0,-1.458439697E-2,-1.300378442E-1,-7.826705277E-2
1.584882053E0,-1.030834299E-2,-1.275943816E-1,-8.254310489E-2
1.587293043E0,-6.643154658E-3,-1.251509190E-1,-8.498656005E-2
1.589704085E0,-4.810560029E-3,-1.208748668E-1,-8.743002266E-2
1.592115074E0,-2.977965865E-3,-1.141553521E-1,-9.231694043E-2
1.594526116E0,-3.588830587E-3,-1.074358448E-1,-9.476039559E-2
1.596937105E0,-2.367100911E-3,-1.001054645E-1,-9.598212689E-2
1.599348147E0,-1.145371469E-3,-9.033162892E-2,-9.537126124E-2
1.601759137E0,-2.367100911E-3,-8.055779338E-2,-9.537126124E-2
1.604170178E0,-2.367100911E-3,-7.139482349E-2,-9.476039559E-2
1.606581168E0,-4.199695308E-3,-6.284271181E-2,-9.292780608E-2
1.608992210E0,-4.199695308E-3,-5.184714869E-2,-9.109520912E-2
1.611403199E0,-5.421424750E-3,-4.085158184E-2,-8.865175396E-2
1.613814241E0,-7.254019380E-3,-3.107774630E-2,-8.620829135E-2
1.616225230E0,-9.086613543E-3,-2.130390890E-2,-8.315397054E-2
1.618636220E0,-9.697478265E-3,-1.214093715E-2,-8.009964228E-2
1.621047262E0,-1.091920771E-2,-2.367100911E-3,-7.643445581E-2
1.623458251E0,-9.697478265E-3,5.574141163E-3,-7.399099320E-2
1.625869293E0,-9.697478265E-3,1.534797717E-2,-7.093667239E-2
1.628280282E0,-1.030834299E-2,2.328922041E-2,-6.849320978E-2
1.630691324E0,-1.091920771E-2,2.939786762E-2,-6.543888897E-2
1.633102314E0,-1.091920771E-2,3.794997558E-2,-6.421715766E-2
1.635513355E0,-8.475748822E-3,4.650207981E-2,-6.177370250E-2
1.637924345E0,-1.030834299E-2,5.322159454E-2,-6.055197120E-2
1.640335387E0,-1.091920771E-2,5.933023989E-2,-5.933023989E-2
1.642746376E0,-1.153007243E-2,6.482802331E-2,-5.749764666E-2
1.645157418E0,-1.214093715E-2,7.032580674E-2,-5.688678101E-2
1.647568407E0,-1.336266659E-2,7.704532146E-2,-5.444332212E-2
1.649979449E0,-1.519526169E-2,8.071050793E-2,-5.383246019E-2
1.652390439E0,-1.336266659E-2,8.376483619E-2,-5.138900131E-2
1.654801428E0,-1.763872057E-2,8.559742570E-2,-4.772381112E-2
1.657212470E0,-1.886045001E-2,8.926261961E-2,-4.711294547E-2
1.659623460E0,-2.130390890E-2,9.170607477E-2,-4.466948658E-2
1.662034501E0,-2.496909723E-2,9.353867173E-2,-4.100430012E-2
1.664445491E0,-2.557996288E-2,9.353867173E-2,-3.794997558E-2
1.666856532E0,-2.985601686E-2,9.170607477E-2,-3.428478539E-2
1.669267522E0,-3.168861195E-2,9.109520912E-2,-3.123046272E-2
1.671678564E0,-3.413207084E-2,8.865175396E-2,-2.634354308E-2
1.674089553E0,-3.535379842E-2,8.437569439E-2,-2.328922041E-2
1.676500595E0,-3.901898861E-2,8.071050793E-2,-2.084576152E-2
1.678911585E0,-3.901898861E-2,7.826705277E-2,-2.023489587E-2
1.681322626E0,-4.146244749E-2,7.399099320E-2,-1.840230078E-2
1.683733616E0,-4.268417507E-2,6.666062027E-2,-1.779143699E-2
1.686144605E0,-4.207331315E-2,6.055197120E-2,-1.779143699E-2
1.688555647E0,-4.329504073E-2,5.444332212E-2,-1.718057133E-2
1.690966689E0,-4.451677203E-2,4.589121789E-2,-1.840230078E-2
1.693377678E0,-4.512763396E-2,3.978256881E-2,-2.084576152E-2
1.695788668E0,-4.696023092E-2,3.245219216E-2,-2.145662531E-2
1.698199710E0,-4.818195850E-2,2.634354308E-2,-2.328922041E-2
1.700610699E0,-4.940368980E-2,1.840230078E-2,-2.267835476E-2
1.703021741E0,-4.879282415E-2,1.107192412E-2,-2.451094985E-2
1.705432730E0,-5.001455545E-2,2.519817324E-3,-2.695440874E-2
1.707843772E0,-5.062541738E-2,-4.810560029E-3,-2.756527252E-2
1.710254762E0,-5.123628303E-2,-1.336266659E-2,-2.756527252E-2
1.712665803E0,-5.123628303E-2,-2.130390890E-2,-2.756527252E-2
1.715076793E0,-5.429060757E-2,-2.985601686E-2,-2.695440874E-2
1.717487835E0,-5.490147322E-2,-3.840812296E-2,-2.695440874E-2
1.719898824E0,-5.673406646E-2,-4.573849961E-2,-2.451094985E-2
1.722309814E0,-5.978839099E-2,-5.306887627E-2,-2.328922041E-2
1.724720855E0,-5.917752534E-2,-5.917752534E-2,-2.084576152E-2
1.727131845E0,-6.162098423E-2,-6.650790572E-2,-1.962403022E-2
1.729542887E0,-6.284271181E-2,-7.383827865E-2,-1.656970754E-2
1.731953876E0,-6.406444311E-2,-7.750347257E-2,-1.534797717E-2
1.734364918E0,-6.345357746E-2,-8.177952468E-2,-1.229365356E-2
1.736775907E0,-6.467530876E-2,-8.727730811E-2,-1.168278884E-2
1.739186949E0,-6.650790572E-2,-9.033162892E-2,-1.107192412E-2
1.741597939E0,-6.528617442E-2,-9.277509153E-2,-9.850194678E-3
1.744008980E0,-6.528617442E-2,-9.460768104E-2,-8.017600514E-3
1.746419970E0,-6.528617442E-2,-9.521854669E-2,-4.963276442E-3
1.748831012E0,-6.650790572E-2,-9.644027799E-2,-3.741546767E-3
1.751242001E0,-6.650790572E-2,-9.521854669E-2,-3.130682046E-3
1.753653043E0,-6.772962958E-2,-9.460768104E-2,-1.298087649E-3
1.756064032E0,-6.711876392E-2,-9.216422588E-2,-7.635809743E-5
1.758475022E0,-6.711876392E-2,-8.788817376E-2,-6.872228696E-4
1.760886064E0,-6.528617442E-2,-8.544471115E-2,5.345066893E-4
1.763297053E0,-6.406444311E-2,-8.177952468E-2,1.145371469E-3
1.765708095E0,-6.406444311E-2,-7.872519642E-2,-7.635809743E-5
1.768119085E0,-6.223184988E-2,-7.322741300E-2,1.145371469E-3
1.770530126E0,-5.856665969E-2,-6.895136088E-2,-7.635809743E-5
1.772941116E0,-5.673406646E-2,-6.345357746E-2,-1.298087649E-3
1.775352157E0,-5.367974192E-2,-5.734493211E-2,-1.908952487E-3
1.777763147E0,-5.184714869E-2,-5.184714869E-2,-1.908952487E-3
1.780174189E0,-4.757109284E-2,-4.512763396E-2,-1.298087649E-3
1.782585178E0,-4.390590638E-2,-3.718639165E-2,-7.635809743E-5
1.784996220E0,-4.329504073E-2,-3.046688065E-2,1.145371469E-3
1.787407210E0,-4.024071619E-2,-2.252563834E-2,2.977965865E-3
1.789818251E0,-3.962985426E-2,-1.519526169E-2,4.810560029E-3
1.792229241E0,-3.840812296E-2,-6.032289471E-3,6.643154658E-3
1.794640230E0,-3.840812296E-2,2.519817324E-3,9.086613543E-3
1.797051272E0,-3.962985426E-2,1.046105940E-2,1.336266659E-2
1.799462262E0,-3.962985426E-2,2.084576152E-2,1.580612548E-2
1.801873303E0,-4.390590638E-2,2.939786762E-2,1.824958436E-2
1.804284293E0,-4.512763396E-2,3.794997558E-2,2.313650399E-2
1.806695335E0,-4.634936526E-2,4.711294547E-2,2.741255611E-2
1.809106324E0,-4.879282415E-2,5.444332212E-2,3.046688065E-2
1.811517366E0,-5.062541738E-2,6.360629201E-2,3.413207084E-2
1.813928355E0,-5.306887627E-2,7.032580674E-2,3.413207084E-2
1.816339397E0,-5.429060757E-2,7.704532146E-2,3.596466407E-2
1.818750387E0,-5.612320080E-2,8.193223923E-2,3.657552972E-2
1.821161428E0,-5.612320080E-2,8.865175396E-2,3.657552972E-2
1.823572418E0,-5.612320080E-2,9.353867173E-2,3.718639165E-2
1.825983460E0,-5.551233515E-2,9.537126124E-2,3.413207084E-2
1.828394449E0,-5.551233515E-2,9.781472385E-2,3.046688065E-2
1.830805439E0,-5.367974192E-2,9.964732081E-2,2.802342176E-2
1.833216480E0,-5.306887627E-2,1.002581790E-1,2.680169232E-2
1.835627470E0,-5.490147322E-2,1.002581790E-1,2.496909723E-2
1.838038512E0,-5.612320080E-2,9.842558950E-2,2.313650399E-2
1.840449501E0,-5.673406646E-2,9.659299254E-2,2.252563834E-2
1.842860543E0,-5.917752534E-2,9.476039559E-2,2.252563834E-2
1.845271532E0,-6.039925665E-2,9.109520912E-2,2.252563834E-2
1.847682574E0,-6.223184988E-2,8.681915700E-2,2.252563834E-2
1.850093564E0,-6.467530876E-2,8.254310489E-2,2.374736778E-2
1.852504605E0,-6.650790572E-2,7.826705277E-2,2.557996288E-2
1.854915595E0,-6.895136088E-2,7.276926935E-2,2.680169232E-2
1.857326637E0,-7.017309219E-2,6.604975462E-2,2.924515121E-2
1.859737626E0,-7.322741300E-2,5.933023989E-2,3.107774630E-2
1.862148668E0,-7.506000996E-2,5.199986324E-2,3.352120519E-2
1.864559657E0,-7.811433077E-2,4.161516204E-2,3.596466407E-2
1.866970647E0,-7.933606207E-2,3.367391974E-2,3.718639165E-2
1.869381689E0,-7.994692773E-2,2.390008420E-2,3.718639165E-2
1.871792678E0,-8.239039034E-2,1.290451828E-2,3.840812296E-2
1.874203720E0,-8.483384550E-2,3.741546767E-3,3.718639165E-2
1.876614710E0,-8.483384550E-2,-7.254019380E-3,3.718639165E-2
1.879025751E0,-8.544471115E-2,-1.824958436E-2,3.779725730E-2
1.881436741E0,-8.666644245E-2,-2.802342176E-2,3.718639165E-2
1.883847782E0,-8.910989761E-2,-3.901898861E-2,3.596466407E-2
1.886258772E0,-8.849903196E-2,-4.940368980E-2,3.352120519E-2
1.888669814E0,-9.033162892E-2,-6.101011857E-2,3.229947388E-2
1.891080803E0,-9.216422588E-2,-7.139482349E-2,2.985601686E-2
1.893491845E0,-9.033162892E-2,-7.994692773E-2,2.863428742E-2
1.895902835E0,-9.094249457E-2,-8.910989761E-2,2.496909723E-2
1.898313824E0,-9.155336022E-2,-9.644027799E-2,2.252563834E-2
1.900724866E0,-9.216422588E-2,-1.049923822E-1,1.947131567E-2
1.903135855E0,-9.155336022E-2,-1.104901657E-1,1.641699113E-2
1.905546897E0,-9.277509153E-2,-1.159879491E-1,1.580612548E-2
1.907957887E0,-9.216422588E-2,-1.196531355E-1,1.458439697E-2
1.910368928E0,-9.338594973E-2,-1.245400533E-1,1.275180187E-2
1.912779918E0,-9.582941234E-2,-1.257617921E-1,1.275180187E-2
1.915190960E0,-9.644027799E-2,-1.257617921E-1,1.275180187E-2
1.917601949E0,-9.827287495E-2,-1.257617921E-1,1.397353224E-2
1.920012991E0,-1.019380614E-1,-1.263726503E-1,1.519526169E-2
1.922423980E0,-1.031597927E-1,-1.239291951E-1,1.519526169E-2
1.924835022E0,-1.056032479E-1,-1.214857325E-1,1.702785492E-2
1.927246012E0,-1.062141135E-1,-1.184314117E-1,1.824958436E-2
1.929657001E0,-1.080467105E-1,-1.141553521E-1,2.069304511E-2
1.932068043E0,-1.104901657E-1,-1.086575761E-1,2.374736778E-2
1.934479032E0,-1.135444939E-1,-1.049923822E-1,2.557996288E-2
1.936890074E0,-1.153770834E-1,-9.827287495E-2,2.680169232E-2
1.939301064E0,-1.178205460E-1,-9.277509153E-2,2.863428742E-2
1.941712105E0,-1.220965981E-1,-8.605557680E-2,3.291033953E-2
1.944123095E0,-1.282052398E-1,-7.811433077E-2,3.596466407E-2
1.946534137E0,-1.294269711E-1,-7.017309219E-2,4.024071619E-2
1.948945126E0,-1.349247545E-1,-6.223184988E-2,4.451677203E-2
1.951356168E0,-1.373682171E-1,-5.367974192E-2,5.062541738E-2
1.953767157E0,-1.385899484E-1,-4.634936526E-2,5.490147322E-2
1.956178199E0,-1.410334110E-1,-3.718639165E-2,6.039925665E-2
1.958589189E0,-1.434768587E-1,-2.985601686E-2,6.528617442E-2
1.961000230E0,-1.428660005E-1,-2.130390890E-2,7.139482349E-2
1.963411220E0,-1.440877318E-1,-1.397353224E-2,7.444914430E-2
1.965822210E0,-1.434768587E-1,-6.643154658E-3,7.811433077E-2
1.968233251E0,-1.398116797E-1,1.298087649E-3,7.872519642E-2
1.970644241E0,-1.367573589E-1,6.185005885E-3,7.811433077E-2
1.973055282E0,-1.337030232E-1,1.290451828E-2,7.872519642E-2
1.975466272E0,-1.288161129E-1,1.840230078E-2,7.567087561E-2
1.977877314E0,-1.214857325E-1,2.328922041E-2,7.261654735E-2
1.980288303E0,-1.159879491E-1,2.695440874E-2,6.834049523E-2
1.982699345E0,-1.080467105E-1,3.123046272E-2,6.162098423E-2
1.985110335E0,-1.013271958E-1,3.306305781E-2,5.795579776E-2
1.987521376E0,-9.399681538E-2,3.550651670E-2,5.001455545E-2
1.989932366E0,-8.788817376E-2,3.733910993E-2,4.390590638E-2
1.992343407E0,-7.872519642E-2,3.917170316E-2,3.779725730E-2
1.994754397E0,-7.383827865E-2,4.100430012E-2,3.046688065E-2
1.997165439E0,-6.711876392E-2,4.283689335E-2,2.496909723E-2
1.999576428E0,-6.101011857E-2,4.222602770E-2,1.947131567E-2
2.001987470E0,-5.429060757E-2,4.161516204E-2,1.519526169E-2
2.004398460E0,-4.696023092E-2,4.222602770E-2,1.153007243E-2
2.006809449E0,-4.268417507E-2,4.344775900E-2,9.086613543E-3
2.009220491E0,-3.718639165E-2,4.283689335E-2,5.421424750E-3
2.011631480E0,-3.046688065E-2,4.161516204E-2,3.588830587E-3
2.014042522E0,-2.557996288E-2,3.917170316E-2,2.977965865E-3
2.016453512E0,-2.008217946E-2,3.917170316E-2,2.367100911E-3
2.018864553E0,-1.397353224E-2,3.856083751E-2,1.756236190E-3
2.021275543E0,-9.086613543E-3,3.672824427E-2,1.756236190E-3
2.023686585E0,-4.199695308E-3,3.550651670E-2,2.367100911E-3
2.026097574E0,6.872228696E-4,3.428478539E-2,4.810560029E-3
2.028508616E0,3.741546767E-3,3.123046272E-2,6.032289471E-3
2.030919605E0,6.795870606E-3,3.245219216E-2,6.643154658E-3
2.033330647E0,9.239329956E-3,3.123046272E-2,9.086613543E-3
2.035741637E0,1.046105940E-2,2.939786762E-2,1.030834299E-2
2.038152626E0,1.229365356E-2,2.878700197E-2,1.458439697E-2
2.040563668E0,1.229365356E-2,2.878700197E-2,1.641699113E-2
2.042974657E0,1.412624773E-2,3.000873141E-2,1.886045001E-2
2.045385699E0,1.595884189E-2,3.061959706E-2,2.191477455E-2
2.047796689E0,1.351538301E-2,2.939786762E-2,2.374736778E-2
2.050207730E0,1.290451828E-2,3.245219216E-2,2.374736778E-2
2.052618720E0,1.107192412E-2,3.489565104E-2,2.374736778E-2
2.055029762E0,1.046105940E-2,3.672824427E-2,2.435823344E-2
2.057440751E0,6.795870606E-3,3.917170316E-2,2.374736778E-2
2.059851793E0,3.741546767E-3,4.161516204E-2,2.191477455E-2
2.062262782E0,2.519817324E-3,4.466948658E-2,2.008217946E-2
2.064673824E0,6.872228696E-4,4.894553870E-2,1.763872057E-2
2.067084814E0,-3.588830587E-3,5.383246019E-2,1.580612548E-2
2.069495855E0,-6.032289471E-3,5.749764666E-2,1.397353224E-2
2.071906845E0,-7.254019380E-3,6.177370250E-2,9.697478265E-3
2.074317887E0,-1.091920771E-2,6.482802331E-2,6.032289471E-3
2.076728876E0,-1.519526169E-2,6.849320978E-2,2.977965865E-3
2.079139866E0,-1.824958436E-2,7.093667239E-2,-1.908952487E-3
2.081550907E0,-2.191477455E-2,7.521272451E-2,-6.795870606E-3
2.083961897E0,-2.557996288E-2,7.948877662E-2,-1.229365356E-2
2.086372939E0,-2.863428742E-2,8.193223923E-2,-1.718057133E-2
2.088783928E0,-3.229947388E-2,8.681915700E-2,-2.145662531E-2
2.091194970E0,-3.413207084E-2,8.987347782E-2,-2.634354308E-2
2.093605960E0,-3.718639165E-2,9.292780608E-2,-3.123046272E-2
2.096017001E0,-3.657552972E-2,9.781472385E-2,-3.611737862E-2
2.098427991E0,-3.901898861E-2,9.842558950E-2,-4.344775900E-2
2.100839032E0,-3.901898861E-2,1.027016416E-1,-5.016727000E-2
2.103250022E0,-3.901898861E-2,1.051450968E-1,-5.627591908E-2
2.105661012E0,-3.901898861E-2,1.069776937E-1,-6.177370250E-2
2.108072053E0,-3.718639165E-2,1.069776937E-1,-6.482802331E-2
2.110483043E0,-3.657552972E-2,1.088102907E-1,-7.215840369E-2
2.112894085E0,-3.352120519E-2,1.112537459E-1,-7.765618712E-2
2.115305074E0,-3.291033953E-2,1.118646115E-1,-8.437569439E-2
2.117716116E0,-3.046688065E-2,1.112537459E-1,-8.926261961E-2
2.120127105E0,-2.802342176E-2,1.106428802E-1,-9.476039559E-2
2.122538147E0,-2.680169232E-2,1.112537459E-1,-1.008690447E-1
2.124949137E0,-2.680169232E-2,1.100320220E-1,-1.069776937E-1
2.127360178E0,-2.802342176E-2,1.106428802E-1,-1.130863428E-1
2.129771168E0,-2.985601686E-2,1.088102907E-1,-1.185841262E-1
2.132182210E0,-3.474293277E-2,1.094211563E-1,-1.234710440E-1
2.134593199E0,-3.962985426E-2,1.100320220E-1,-1.301905513E-1
2.137004189E0,-4.451677203E-2,1.081994250E-1,-1.326340139E-1
2.139415230E0,-5.062541738E-2,1.088102907E-1,-1.344666034E-1
2.141826220E0,-6.101011857E-2,1.081994250E-1,-1.362992078E-1
2.144237262E0,-7.017309219E-2,1.063668281E-1,-1.369100660E-1
2.146648251E0,-8.483384550E-2,1.063668281E-1,-1.369100660E-1
2.149059293E0,-1.001054645E-1,1.045342386E-1,-1.387426704E-1
2.151470282E0,-1.184314117E-1,1.020907760E-1,-1.375209391E-1
2.153881324E0,-1.392008066E-1,9.903645515E-2,-1.362992078E-1
2.156292314E0,-1.642462611E-1,9.476039559E-2,-1.381317973E-1
2.158703355E0,-1.954003721E-1,8.865175396E-2,-1.356883347E-1
2.161114345E0,-2.320522517E-1,7.948877662E-2,-1.326340139E-1
2.163525387E0,-2.735910714E-1,6.910407543E-2,-1.253036410E-1
2.165936376E0,-3.175733387E-1,5.566505343E-2,-1.185841262E-1
2.168347418E0,-3.664425015E-1,3.733910993E-2,-1.106428802E-1
2.170758407E0,-4.128682315E-1,1.473711245E-2,-9.964732081E-2
2.173169449E0,-4.611265361E-1,-9.086613543E-3,-9.048434347E-2
2.175580439E0,-5.044979453E-1,-3.474293277E-2,-8.009964228E-2
2.177991428E0,-5.442041755E-1,-6.406444311E-2,-7.032580674E-2
2.180402470E0,-5.796343088E-1,-9.399681538E-2,-6.055197120E-2
2.182813460E0,-6.120101213E-1,-1.245400533E-1,-5.199986324E-2
2.185224501E0,-6.425533891E-1,-1.556941569E-1,-4.711294547E-2
2.187635491E0,-6.730966568E-1,-1.868482679E-1,-4.283689335E-2
2.190046532E0,-6.993638277E-1,-2.173915058E-1,-3.978256881E-2
2.192457522E0,-7.262418866E-1,-2.485456020E-1,-4.039343446E-2
2.194868564E0,-7.457895279E-1,-2.760345340E-1,-4.283689335E-2
2.197279553E0,-7.598394156E-1,-3.029125631E-1,-4.589121789E-2
2.199690595E0,-7.671698332E-1,-3.261254430E-1,-4.955640435E-2
2.202101585E0,-7.647263408E-1,-3.444513679E-1,-5.261072889E-2
2.204512626E0,-7.488438487E-1,-3.523926139E-1,-5.383246019E-2
2.206923616E0,-7.225766778E-1,-3.566686809E-1,-5.444332212E-2
2.209334605E0,-6.969203353E-1,-3.578903973E-1,-5.322159454E-2
2.211745647E0,-6.749292016E-1,-3.517817557E-1,-4.833467677E-2
2.214156637E0,-6.578249931E-1,-3.407861888E-1,-4.222602770E-2
2.216567678E0,-6.474403143E-1,-3.261254430E-1,-3.428478539E-2
2.218978668E0,-6.407207847E-1,-3.090212345E-1,-2.695440874E-2
2.221389710E0,-6.388881803E-1,-2.894735336E-1,-1.840230078E-2
2.223800699E0,-6.394990683E-1,-2.662606835E-1,-1.046105940E-2
2.226211741E0,-6.462185979E-1,-2.412152290E-1,1.145371469E-3
2.228622730E0,-6.614902020E-1,-2.186132371E-1,1.458439697E-2
2.231033772E0,-6.877573729E-1,-1.935677826E-1,2.924515121E-2
2.233444762E0,-7.268527150E-1,-1.660788655E-1,4.512763396E-2
2.235855803E0,-7.690023780E-1,-1.324812919E-1,5.123628303E-2
2.238266793E0,-8.184824586E-1,-9.766200930E-2,4.940368980E-2
2.240677782E0,-8.795689344E-1,-6.345357746E-2,4.634936526E-2
2.243088824E0,-9.418771267E-1,-2.680169232E-2,4.329504073E-2
2.245499814E0,-1.006017923E0,6.795870606E-3,3.962985426E-2
2.247910855E0,-1.070769548E0,4.100430012E-2,3.657552972E-2
2.250321845E0,-1.133077860E0,7.643445581E-2,3.291033953E-2
2.252732887E0,-1.196607709E0,1.118646115E-1,2.924515121E-2
2.255143876E0,-1.261970282E0,1.448513120E-1,2.619082667E-2
2.257554918E0,-1.323667645E0,1.821140647E-1,2.191477455E-2
2.259965907E0,-1.387808442E0,2.163224965E-1,1.824958436E-2
2.262376949E0,-1.449505806E0,2.505309284E-1,1.458439697E-2
2.264787939E0,-1.511813998E0,2.853502035E-1,1.030834299E-2
2.267198980E0,-1.575954795E0,3.183369040E-1,6.643154658E-3
2.269609970E0,-1.638262987E0,3.507127464E-1,2.977965865E-3
2.272021012E0,-1.699349403E0,3.836994469E-1,5.345066893E-4
2.274432001E0,-1.761657715E0,4.142426848E-1,-6.185005885E-3
2.276842991E0,-1.822133303E0,4.429533184E-1,-9.850194678E-3
2.279254032E0,-1.883219719E0,4.716639817E-1,-1.412624773E-2
2.281665022E0,-1.943695426E0,4.979311526E-1,-1.718057133E-2
2.284076064E0,-2.002338409E0,5.229766369E-1,-2.328922041E-2
2.286487053E0,-2.060981512E0,5.455785990E-1,-2.695440874E-2
2.288898095E0,-2.118402719E0,5.675697327E-1,-3.184132650E-2
2.291309085E0,-2.175213099E0,5.865065455E-1,-3.550651670E-2
2.293720126E0,-2.230801821E0,6.036107540E-1,-3.978256881E-2
2.296131116E0,-2.287001371E0,6.176606417E-1,-4.466948658E-2
2.298542157E0,-2.339535713E0,6.298779249E-1,-4.772381112E-2
2.300953147E0,-2.390848398E0,6.408734918E-1,-5.383246019E-2
2.303364189E0,-2.442161083E0,6.488147378E-1,-5.749764666E-2
2.305775178E0,-2.490419388E0,6.530908346E-1,-6.116283685E-2
2.308186220E0,-2.539288521E0,6.549233794E-1,-6.727148592E-2
2.310597210E0,-2.584492445E0,6.549233794E-1,-7.093667239E-2
2.313008199E0,-2.627253056E0,6.512582302E-1,-7.460185885E-2
2.315419241E0,-2.670624495E0,6.457604170E-1,-7.887791097E-2
2.317830230E0,-2.710330725E0,6.359865665E-1,-8.254310489E-2
2.320241272E0,-2.748815060E0,6.256018877E-1,-8.620829135E-2
2.322652262E0,-2.785467148E0,6.139954329E-1,-8.926261961E-2
2.325063303E0,-2.820897102E0,5.968912244E-1,-9.414953738E-2
2.327474293E0,-2.853272915E0,5.779544115E-1,-9.659299254E-2
2.329885335E0,-2.883816242E0,5.571850538E-1,-1.002581790E-1
2.332296324E0,-2.913137674E0,5.333613157E-1,-1.020907760E-1
2.334707366E0,-2.940626621E0,5.083158612E-1,-1.057559624E-1
2.337118355E0,-2.964450359E0,4.814378023E-1,-1.063668281E-1
2.339529397E0,-2.987663269E0,4.521162808E-1,-1.100320220E-1
2.341940387E0,-3.009043455E0,4.185187221E-1,-1.118646115E-1
2.344351428E0,-3.027369499E0,3.867537677E-1,-1.124754772E-1
2.346762418E0,-3.043862820E0,3.513236046E-1,-1.155297980E-1
2.349173407E0,-3.059134483E0,3.146717250E-1,-1.161406636E-1
2.351584449E0,-3.072573423E0,2.786307037E-1,-1.173623949E-1
2.353995439E0,-3.085401535E0,2.389244884E-1,-1.179732606E-1
2.356406480E0,-3.094564676E0,1.986074150E-1,-1.179732606E-1
2.358817470E0,-3.100673199E0,1.582903415E-1,-1.185841262E-1
2.361228512E0,-3.106171131E0,1.173623949E-1,-1.179732606E-1
2.363639501E0,-3.110447168E0,7.582359016E-2,-1.185841262E-1
2.366050543E0,-3.111057997E0,3.306305781E-2,-1.167515293E-1
2.368461532E0,-3.111057997E0,-1.030834299E-2,-1.149189398E-1
2.370872574E0,-3.108614445E0,-5.184714869E-2,-1.136972085E-1
2.373283564E0,-3.105560064E0,-9.644027799E-2,-1.124754772E-1
2.375694605E0,-3.098229885E0,-1.398116797E-1,-1.118646115E-1
2.378105595E0,-3.090899467E0,-1.819613427E-1,-1.094211563E-1
2.380516585E0,-3.081125498E0,-2.222784162E-1,-1.057559624E-1
2.382927626E0,-3.071351767E0,-2.656498253E-1,-1.027016416E-1
2.385338616E0,-3.056690931E0,-3.053560257E-1,-9.964732081E-2
2.387749657E0,-3.039586782E0,-3.438405097E-1,-9.720385820E-2
2.390160647E0,-3.023704290E0,-3.823249936E-1,-9.414953738E-2
2.392571689E0,-3.005378246E0,-4.189768732E-1,-9.048434347E-2
2.394982678E0,-2.985219717E0,-4.537961781E-1,-8.743002266E-2
2.397393720E0,-2.962007046E0,-4.867828786E-1,-8.315397054E-2
2.399804710E0,-2.936961412E0,-5.191587210E-1,-7.887791097E-2
2.402215751E0,-2.910083532E0,-5.484802127E-1,-7.582359016E-2
2.404626741E0,-2.883205414E0,-5.741365552E-1,-7.215840369E-2
2.407037782E0,-2.853883982E0,-5.997928381E-1,-6.666062027E-2
2.409448772E0,-2.822118998E0,-6.217839718E-1,-6.177370250E-2
2.411859814E0,-2.789132118E0,-6.437751055E-1,-5.749764666E-2
2.414270803E0,-2.754923820E0,-6.596575975E-1,-5.322159454E-2
2.416681845E0,-2.720104456E0,-6.749292016E-1,-4.894553870E-2
2.419092835E0,-2.682841778E0,-6.865356565E-1,-4.405862093E-2
2.421503824E0,-2.643746376E0,-6.963095069E-1,-4.039343446E-2
2.423914866E0,-2.604040146E0,-7.018072605E-1,-3.672824427E-2
2.426325855E0,-2.563723087E0,-7.036398649E-1,-3.306305781E-2
2.428736897E0,-2.521573544E0,-7.030289769E-1,-2.817613818E-2
2.431147887E0,-2.477591276E0,-6.993638277E-1,-2.267835476E-2
2.433558928E0,-2.432387114E0,-6.902008653E-1,-1.962403022E-2
2.435969918E0,-2.388404846E0,-6.816487312E-1,-1.595884189E-2
2.438380960E0,-2.342590094E0,-6.675988436E-1,-1.168278884E-2
2.440791949E0,-2.294331789E0,-6.517163515E-1,-7.406735327E-3
2.443202991E0,-2.246684313E0,-6.321687102E-1,-4.963276442E-3
2.445613980E0,-2.200258493E0,-6.101775765E-1,-2.519817324E-3
2.448025022E0,-2.150778532E0,-5.851321220E-1,5.345066893E-4
2.450436012E0,-2.100687504E0,-5.576431751E-1,4.199695308E-3
2.452847001E0,-2.051207542E0,-5.258781910E-1,6.032289471E-3
2.455258043E0,-2.001727581E0,-4.935023785E-1,8.475748822E-3
2.457669032E0,-1.949804068E0,-4.580722153E-1,1.153007243E-2
2.460080074E0,-1.900934815E0,-4.208094776E-1,1.336266659E-2
2.462491064E0,-1.850233078E0,-3.823249936E-1,1.519526169E-2
2.464902105E0,-1.800142169E0,-3.401753306E-1,1.702785492E-2
2.467313095E0,-1.750051260E0,-2.992473841E-1,1.886045001E-2
2.469724137E0,-1.698738575E0,-2.546542585E-1,2.069304511E-2
2.472135126E0,-1.648036838E0,-2.100611329E-1,2.130390890E-2
2.474546168E0,-1.599167585E0,-1.636354029E-1,2.252563834E-2
2.476957157E0,-1.550298452E0,-1.159879491E-1,2.374736778E-2
2.479368199E0,-1.502650976E0,-7.078395784E-2,2.435823344E-2
2.481779189E0,-1.451949239E0,-2.191477455E-2,2.435823344E-2
2.484190230E0,-1.404301763E0,2.695440874E-2,2.496909723E-2
2.486601220E0,-1.356654286E0,7.460185885E-2,2.557996288E-2
2.489012262E0,-1.310228586E0,1.228601784E-1,2.557996288E-2
2.491423251E0,-1.263802886E0,1.705076247E-1,2.680169232E-2
2.493834241E0,-1.219209790E0,2.169333547E-1,2.496909723E-2
2.496245282E0,-1.174005747E0,2.639699280E-1,2.496909723E-2
2.498656272E0,-1.130634308E0,3.085630834E-1,2.557996288E-2
2.501067314E0,-1.087873816E0,3.519344628E-1,2.557996288E-2
2.503478303E0,-1.045724154E0,3.940841556E-1,2.496909723E-2
2.505889345E0,-1.006628752E0,4.325686097E-1,2.435823344E-2
2.508300335E0,-9.650899768E-1,4.716639817E-1,2.619082667E-2
2.510711376E0,-9.284381270E-1,5.064832568E-1,2.496909723E-2
2.513122366E0,-8.899536133E-1,5.400808454E-1,2.496909723E-2
2.515533407E0,-8.551343083E-1,5.718457699E-1,2.496909723E-2
2.517944397E0,-8.209258914E-1,5.999455452E-1,2.374736778E-2
2.520355439E0,-7.885500789E-1,6.249909997E-1,2.313650399E-2
2.522766428E0,-7.561742663E-1,6.469821334E-1,2.191477455E-2
2.525177418E0,-7.268527150E-1,6.665298343E-1,2.313650399E-2
2.527588460E0,-6.987529397E-1,6.830231547E-1,2.313650399E-2
2.529999449E0,-6.724857688E-1,6.946296096E-1,2.435823344E-2
2.532410491E0,-6.480512023E-1,7.031817436E-1,2.252563834E-2
2.534821480E0,-6.254491806E-1,7.099012136E-1,2.313650399E-2
2.537232522E0,-6.059014797E-1,7.123447061E-1,2.252563834E-2
2.539643512E0,-5.875755548E-1,7.105121017E-1,2.252563834E-2
2.542054553E0,-5.692496300E-1,7.050142884E-1,2.252563834E-2
2.544465543E0,-5.545888543E-1,6.970730424E-1,2.313650399E-2
2.546876585E0,-5.417606831E-1,6.848557591E-1,2.252563834E-2
2.549287574E0,-5.319868922E-1,6.683624387E-1,2.374736778E-2
2.551698616E0,-5.234347582E-1,6.500364542E-1,2.313650399E-2
2.554109605E0,-5.161044002E-1,6.280453801E-1,2.252563834E-2
2.556520647E0,-5.124391913E-1,6.029998660E-1,2.313650399E-2
2.558931637E0,-5.099957585E-1,5.755109787E-1,2.313650399E-2
2.561342626E0,-5.099957585E-1,5.431351662E-1,2.374736778E-2
2.563753668E0,-5.142717957E-1,5.077049732E-1,2.313650399E-2
2.566164657E0,-5.173261166E-1,4.722748399E-1,2.313650399E-2
2.568575699E0,-5.252673626E-1,4.337903559E-1,2.374736778E-2
2.570986689E0,-5.344303250E-1,3.910298049E-1,2.313650399E-2
2.573397730E0,-5.466476083E-1,3.470475674E-1,2.435823344E-2
2.575808720E0,-5.594757795E-1,3.024544120E-1,2.496909723E-2
2.578219762E0,-5.729147792E-1,2.566395700E-1,2.496909723E-2
2.580630751E0,-5.912407637E-1,2.096029818E-1,2.496909723E-2
2.583041793E0,-6.113992929E-1,1.625663936E-1,2.496909723E-2
2.585452782E0,-6.333904266E-1,1.136972085E-1,2.496909723E-2
2.587863824E0,-6.553815603E-1,6.482802331E-2,2.435823344E-2
2.590274814E0,-6.828704476E-1,1.473711245E-2,2.435823344E-2
2.592685803E0,-7.091376781E-1,-3.229947388E-2,2.374736778E-2
2.595096845E0,-7.384591699E-1,-8.055779338E-2,2.374736778E-2
2.597507835E0,-7.690023780E-1,-1.275943816E-1,2.435823344E-2
2.599918876E0,-8.025999665E-1,-1.734092385E-1,2.374736778E-2
2.602329866E0,-8.368083835E-1,-2.180023640E-1,2.374736778E-2
2.604740907E0,-8.734602928E-1,-2.632063627E-1,2.313650399E-2
2.607151897E0,-9.101121426E-1,-3.053560257E-1,2.435823344E-2
2.609562939E0,-9.492074847E-1,-3.432296515E-1,2.313650399E-2
2.611973928E0,-9.913572073E-1,-3.817141354E-1,2.191477455E-2
2.614384970E0,-1.032896042E0,-4.171442986E-1,2.252563834E-2
2.616795960E0,-1.074434757E0,-4.495201111E-1,2.252563834E-2
2.619207001E0,-1.118417025E0,-4.794524908E-1,2.130390890E-2
2.621617991E0,-1.165453672E0,-5.069414377E-1,2.069304511E-2
2.624029032E0,-1.211879373E0,-5.319868922E-1,1.947131567E-2
2.626440022E0,-1.260137677E0,-5.539780259E-1,1.886045001E-2
2.628851012E0,-1.309006810E0,-5.723039508E-1,1.886045001E-2
2.631262053E0,-1.357876062E0,-5.875755548E-1,1.886045001E-2
2.633673095E0,-1.409799576E0,-6.004037261E-1,1.886045001E-2
2.636084085E0,-1.461723089E0,-6.089558005E-1,1.763872057E-2
2.638495074E0,-1.513035655E0,-6.138427258E-1,1.641699113E-2
2.640906116E0,-1.567402720E0,-6.162862182E-1,1.519526169E-2
2.643317105E0,-1.620547891E0,-6.138427258E-1,1.519526169E-2
2.645728147E0,-1.673693180E0,-6.089558005E-1,1.397353224E-2
2.648139137E0,-1.730503559E0,-6.016254425E-1,1.336266659E-2
2.650550178E0,-1.784259677E0,-5.900190473E-1,1.275180187E-2
2.652961168E0,-1.839848399E0,-5.759691000E-1,1.153007243E-2
2.655372210E0,-1.895437002E0,-5.582540631E-1,1.030834299E-2
2.657783199E0,-1.951025724E0,-5.374846458E-1,8.475748822E-3
2.660194189E0,-2.007225275E0,-5.112174749E-1,6.643154658E-3
2.662605230E0,-2.063424826E0,-4.849502742E-1,6.643154658E-3
2.665016220E0,-2.117181063E0,-4.556287527E-1,4.810560029E-3
2.667427262E0,-2.172769547E0,-4.244746566E-1,3.588830587E-3
2.669838251E0,-2.227747440E0,-3.902662396E-1,2.367100911E-3
2.672249293E0,-2.282114506E0,-3.536143601E-1,-7.635809743E-5
2.674660282E0,-2.336481333E0,-3.169624507E-1,-3.130682046E-3
2.677071324E0,-2.388404846E0,-2.754236460E-1,-4.352411721E-3
2.679482314E0,-2.440939188E0,-2.344957143E-1,-4.963276442E-3
2.681893355E0,-2.492862701E0,-1.911243200E-1,-8.017600514E-3
2.684304345E0,-2.543564558E0,-1.477529258E-1,-1.046105940E-2
2.686715387E0,-2.592433691E0,-1.049923822E-1,-1.351538301E-2
2.689126376E0,-2.642524719E0,-6.162098423E-2,-1.534797717E-2
2.691537418E0,-2.689561367E0,-1.641699113E-2,-1.779143699E-2
2.693948407E0,-2.734765291E0,3.061959706E-2,-1.901316643E-2
2.696359397E0,-2.779969215E0,7.521272451E-2,-2.451094985E-2
2.698770439E0,-2.823340654E0,1.179732606E-1,-2.634354308E-2
2.701181428E0,-2.865490437E0,1.631772518E-1,-3.000873141E-2
2.703592470E0,-2.906418324E0,2.059377879E-1,-3.245219216E-2
2.706003460E0,-2.944902658E0,2.486983240E-1,-3.611737862E-2
2.708414501E0,-2.983387232E0,2.890154123E-1,-4.039343446E-2
2.710825491E0,-3.019428253E0,3.287216127E-1,-4.344775900E-2
2.713236532E0,-3.053636789E0,3.665952384E-1,-4.772381112E-2
2.715647522E0,-3.086623430E0,4.014145136E-1,-5.016727000E-2
2.718058564E0,-3.117166519E0,4.350120723E-1,-5.444332212E-2
2.720469553E0,-3.147099018E0,4.686096311E-1,-5.810851231E-2
2.722880595E0,-3.176420450E0,4.991528690E-1,-6.360629201E-2
2.725291585E0,-3.203298569E0,5.254200697E-1,-6.666062027E-2
2.727702626E0,-3.225289583E0,5.510764122E-1,-6.971494108E-2
2.730113616E0,-3.247891665E0,5.742892623E-1,-7.399099320E-2
2.732524657E0,-3.268050194E0,5.944477916E-1,-7.826705277E-2
2.734935647E0,-3.285765409E0,6.109411120E-1,-8.193223923E-2
2.737346637E0,-3.303480387E0,6.274344921E-1,-8.620829135E-2
2.739757678E0,-3.318752050E0,6.384300590E-1,-9.048434347E-2
2.742168668E0,-3.330969334E0,6.469821334E-1,-9.414953738E-2
2.744579710E0,-3.341964960E0,6.524799466E-1,-9.720385820E-2
2.746990699E0,-3.349906206E0,6.555342674E-1,-1.020907760E-1
2.749401741E0,-3.355403900E0,6.567559838E-1,-1.045342386E-1
2.751812730E0,-3.359069109E0,6.518690586E-1,-1.069776937E-1
2.754223772E0,-3.360901594E0,6.463713050E-1,-1.112537459E-1
2.756634762E0,-3.360290766E0,6.372083426E-1,-1.130863428E-1
2.759045751E0,-3.359069109E0,6.249909997E-1,-1.161406636E-1
2.761456793E0,-3.354793072E0,6.109411120E-1,-1.185841262E-1
2.763867782E0,-3.347462654E0,5.938369036E-1,-1.204167232E-1
2.766278824E0,-3.340132236E0,5.730675459E-1,-1.234710440E-1
2.768689814E0,-3.327914953E0,5.516872406E-1,-1.253036410E-1
2.771100855E0,-3.315086842E0,5.278635025E-1,-1.265253723E-1
2.773511845E0,-3.301036835E0,4.991528690E-1,-1.277471036E-1
2.775922887E0,-3.284543514E0,4.710530937E-1,-1.271362305E-1
2.778333876E0,-3.264995813E0,4.398989975E-1,-1.277471036E-1
2.780744918E0,-3.243004799E0,4.075231552E-1,-1.295796931E-1
2.783155907E0,-3.219791889E0,3.714821339E-1,-1.295796931E-1
2.785566949E0,-3.196578979E0,3.342193961E-1,-1.295796931E-1
2.787977939E0,-3.167257547E0,3.000109792E-1,-1.283579618E-1
2.790388980E0,-3.137325048E0,2.621373534E-1,-1.277471036E-1
2.792799970E0,-3.108614445E0,2.212094069E-1,-1.265253723E-1
2.795210960E0,-3.075016975E0,1.821140647E-1,-1.265253723E-1
2.797622001E0,-3.040197611E0,1.417969912E-1,-1.240819097E-1
2.800032991E0,-3.003545761E0,1.008690447E-1,-1.210275814E-1
2.802444032E0,-2.965061188E0,5.994110554E-2,-1.191949919E-1
2.804855022E0,-2.927187681E0,2.023489587E-2,-1.161406636E-1
2.807266064E0,-2.886259794E0,-2.069304511E-2,-1.149189398E-1
2.809677053E0,-2.844110012E0,-6.101011857E-2,-1.124754772E-1
2.812088095E0,-2.800127745E0,-9.949459881E-2,-1.100320220E-1
2.814499085E0,-2.756145477E0,-1.392008066E-1,-1.063668281E-1
2.816910126E0,-2.709719896E0,-1.764635593E-1,-1.020907760E-1
2.819321116E0,-2.660239697E0,-2.118937224E-1,-9.842558950E-2
2.821732157E0,-2.611981392E0,-2.461021543E-1,-9.598212689E-2
2.824143147E0,-2.561279774E0,-2.809214294E-1,-9.231694043E-2
2.826554137E0,-2.509967089E0,-3.139081299E-1,-8.865175396E-2
2.828965178E0,-2.458043575E0,-3.462839723E-1,-8.498656005E-2
2.831376168E0,-2.404287338E0,-3.768272102E-1,-7.948877662E-2
2.833787210E0,-2.349309683E0,-4.030944109E-1,-7.582359016E-2
2.836198199E0,-2.294942617E0,-4.293615818E-1,-7.215840369E-2
2.838609241E0,-2.236910582E0,-4.531853199E-1,-6.788235158E-2
2.841020230E0,-2.180099964E0,-4.763981700E-1,-6.482802331E-2
2.843431272E0,-2.120846272E0,-4.971675575E-1,-6.116283685E-2
2.845842262E0,-2.062203169E0,-5.148826241E-1,-5.566505343E-2
2.848253303E0,-2.001116753E0,-5.301542878E-1,-5.077813566E-2
2.850664293E0,-1.938808441E0,-5.448150039E-1,-4.772381112E-2
2.853075335E0,-1.876500249E0,-5.564214587E-1,-4.344775900E-2
2.855486324E0,-1.814192057E0,-5.661953092E-1,-3.978256881E-2
2.857897366E0,-1.748829484E0,-5.735256672E-1,-3.550651670E-2
2.860308355E0,-1.686521292E0,-5.802451968E-1,-3.184132650E-2
2.862719397E0,-1.621769667E0,-5.826886296E-1,-2.817613818E-2
2.865130387E0,-1.555185318E0,-5.814669132E-1,-2.451094985E-2
2.867541376E0,-1.489211917E0,-5.814669132E-1,-2.145662531E-2
2.869952418E0,-1.421406031E0,-5.771908760E-1,-1.656970754E-2
2.872363407E0,-1.353600025E0,-5.698604584E-1,-1.412624773E-2
2.874774449E0,-1.287015676E0,-5.619192123E-1,-1.107192412E-2
2.877185439E0,-1.217377186E0,-5.503128171E-1,-6.795870606E-3
2.879596480E0,-1.151403785E0,-5.380955338E-1,-4.352411721E-3
2.882007470E0,-1.081765175E0,-5.222130418E-1,-1.908952487E-3
2.884418512E0,-1.012126565E0,-5.051088333E-1,1.756236190E-3
2.886829501E0,-9.449314475E-1,-4.880045950E-1,3.588830587E-3
2.889240543E0,-8.765146136E-1,-4.666243196E-1,6.643154658E-3
2.891651532E0,-8.062651753E-1,-4.440223277E-1,7.254019380E-3
2.894062574E0,-7.360156775E-1,-4.189768732E-1,9.697478265E-3
2.896473564E0,-6.682097316E-1,-3.939314187E-1,1.091920771E-2
2.898884605E0,-5.991820097E-1,-3.682751060E-1,1.458439697E-2
2.901295595E0,-5.301542878E-1,-3.389535844E-1,1.702785492E-2
2.903706585E0,-4.635699987E-1,-3.096320927E-1,1.763872057E-2
2.906117626E0,-3.969857395E-1,-2.784779668E-1,1.886045001E-2
2.908528616E0,-3.285689056E-1,-2.479347438E-1,2.130390890E-2
2.910939657E0,-2.607629001E-1,-2.143371850E-1,2.313650399E-2
2.913350647E0,-1.954003721E-1,-1.819613427E-1,2.496909723E-2
2.915761689E0,-1.288161129E-1,-1.471420527E-1,2.557996288E-2
2.918172678E0,-6.406444311E-2,-1.141553521E-1,2.680169232E-2
2.920583720E0,1.908952487E-3,-7.933606207E-2,2.863428742E-2
2.922994710E0,6.482802331E-2,-4.573849961E-2,2.924515121E-2
2.925405751E0,1.283579618E-1,-1.091920771E-2,3.046688065E-2
2.927816741E0,1.931096315E-1,2.634354308E-2,3.229947388E-2
2.930227730E0,2.541961074E-1,6.055197120E-2,3.352120519E-2
2.932638772E0,3.165042996E-1,9.414953738E-2,3.413207084E-2
2.935049762E0,3.763690591E-1,1.277471036E-1,3.535379842E-2
2.937460803E0,4.356229603E-1,1.613446623E-1,3.779725730E-2
2.939871793E0,4.960985482E-1,1.949422210E-1,3.901898861E-2
2.942282835E0,5.553524494E-1,2.267071903E-1,3.901898861E-2
2.944693824E0,6.121628881E-1,2.578612864E-1,4.207331315E-2
2.947104866E0,6.695841551E-1,2.890154123E-1,4.268417507E-2
2.949515855E0,7.257837057E-1,3.189477623E-1,4.451677203E-2
2.951926897E0,7.813724279E-1,3.470475674E-1,4.696023092E-2
2.954337887E0,8.363502622E-1,3.727038801E-1,4.757109284E-2
2.956748928E0,8.901063204E-1,4.008036554E-1,4.940368980E-2
2.959159918E0,9.426407218E-1,4.246273935E-1,5.062541738E-2
2.961570960E0,9.951750636E-1,4.484511018E-1,5.184714869E-2
2.963981949E0,1.046487689E0,4.692205191E-1,5.306887627E-2
2.966392939E0,1.097189546E0,4.881573021E-1,5.612320080E-2
2.968803980E0,1.146669507E0,5.070941448E-1,5.734493211E-2
2.971214970E0,1.196149588E0,5.241983533E-1,5.856665969E-2
2.973626012E0,1.243186235E0,5.388590693E-1,6.345357746E-2
2.976037001E0,1.290833592E0,5.516872406E-1,6.589704007E-2
2.978448043E0,1.336037636E0,5.620719790E-1,6.772962958E-2
2.980859032E0,1.380019903E0,5.706240535E-1,7.078395784E-2
2.983270074E0,1.424612999E0,5.785652995E-1,7.322741300E-2
2.985681064E0,1.466151834E0,5.816196203E-1,7.444914430E-2
2.988092105E0,1.507079720E0,5.852848291E-1,7.811433077E-2
2.990503095E0,1.548007727E0,5.852848291E-1,7.994692773E-2
2.992914137E0,1.585881352E0,5.834522247E-1,8.300124854E-2
2.995325126E0,1.624976635E0,5.791761875E-1,8.666644245E-2
2.997736116E0,1.661017656E0,5.736783743E-1,8.849903196E-2
3.000147157E0,1.695226073E0,5.651262999E-1,9.155336022E-2
3.002558147E0,1.730045438E0,5.559632778E-1,9.216422588E-2
3.004969189E0,1.761199474E0,5.431351662E-1,9.644027799E-2
3.007380178E0,1.792964458E0,5.284743905E-1,9.949459881E-2
3.009791220E0,1.824729443E0,5.119810700E-1,1.025489271E-1
3.012202210E0,1.851607561E0,4.918225110E-1,1.043815166E-1
3.014613251E0,1.878485560E0,4.722748399E-1,1.074358448E-1
3.017024241E0,1.902309299E0,4.502837062E-1,1.111010313E-1
3.019435282E0,1.927354693E0,4.264599681E-1,1.129336283E-1
3.021846272E0,1.950567603E0,4.014145136E-1,1.165988147E-1
3.024257314E0,1.970115304E0,3.739255965E-1,1.196531355E-1
3.026668303E0,1.989662886E0,3.452149630E-1,1.214857325E-1
3.029079345E0,2.007988930E0,3.165042996E-1,1.227074638E-1
3.031490335E0,2.024482250E0,2.853502035E-1,1.251509190E-1
3.033901324E0,2.040975571E0,2.529743910E-1,1.275943816E-1
3.036312366E0,2.053803682E0,2.205985487E-1,1.300378442E-1
3.038723355E0,2.066020966E0,1.876118481E-1,1.324812919E-1
3.041134397E0,2.077016592E0,1.527925581E-1,1.330921650E-1
3.043545387E0,2.084957838E0,1.191949919E-1,1.355356276E-1
3.045956428E0,2.093509912E0,8.193223923E-2,1.367573589E-1
3.048367418E0,2.099618673E0,4.711294547E-2,1.379790753E-1
3.050778460E0,2.104505539E0,1.046105940E-2,1.385899484E-1
3.053189449E0,2.108781576E0,-2.496909723E-2,1.392008066E-1
3.055600491E0,2.109392405E0,-6.223184988E-2,1.404225379E-1
3.058011480E0,2.111835957E0,-9.766200930E-2,1.410334110E-1
3.060422522E0,2.110614061E0,-1.324812919E-1,1.416442692E-1
3.062833512E0,2.110614061E0,-1.673005968E-1,1.416442692E-1
3.065244501E0,2.105727196E0,-2.033416182E-1,1.416442692E-1
3.067655543E0,2.102061987E0,-2.363283187E-1,1.422551423E-1
3.070066532E0,2.095953465E0,-2.693150043E-1,1.416442692E-1
3.072477574E0,2.089233875E0,-2.998582423E-1,1.422551423E-1
3.074888564E0,2.081292629E0,-3.316232264E-1,1.422551423E-1
3.077299605E0,2.072129726E0,-3.615556061E-1,1.392008066E-1
3.079710595E0,2.060523272E0,-3.908770978E-1,1.392008066E-1
3.082121637E0,2.050138474E0,-4.171442986E-1,1.379790753E-1
3.084532626E0,2.037921190E0,-4.428006113E-1,1.373682171E-1
3.086943668E0,2.023871422E0,-4.672352076E-1,1.361464858E-1
3.089354657E0,2.006767273E0,-4.904480577E-1,1.343138963E-1
3.091765699E0,1.990273833E0,-5.106065869E-1,1.324812919E-1
3.094176689E0,1.973780513E0,-5.289325118E-1,1.312595755E-1
3.096587730E0,1.954843640E0,-5.454258919E-1,1.300378442E-1
3.098998720E0,1.934685111E0,-5.594757795E-1,1.275943816E-1
3.101409710E0,1.914526582E0,-5.723039508E-1,1.251509190E-1
3.103820751E0,1.893146276E0,-5.826886296E-1,1.233183295E-1
3.106231741E0,1.870544314E0,-5.894081593E-1,1.208748668E-1
3.108642782E0,1.846109748E0,-5.961276889E-1,1.178205460E-1
3.111053772E0,1.822896838E0,-5.985711217E-1,1.153770834E-1
3.113464814E0,1.798462272E0,-5.967385173E-1,1.129336283E-1
3.115875803E0,1.770973325E0,-5.961276889E-1,1.086575761E-1
3.118286845E0,1.745927930E0,-5.930733681E-1,1.074358448E-1
3.120697835E0,1.718438983E0,-5.863538384E-1,1.049923822E-1
3.123108876E0,1.690339208E0,-5.778017044E-1,1.007163301E-1
3.125519866E0,1.661017656E0,-5.674170256E-1,9.888373315E-2
3.127930855E0,1.632917881E0,-5.521454215E-1,9.705114365E-2
3.130341897E0,1.603596449E0,-5.368737578E-1,9.399681538E-2
3.132752887E0,1.572442293E0,-5.185478330E-1,9.033162892E-2
3.135163928E0,1.543120742E0,-5.002219081E-1,8.849903196E-2
3.137574918E0,1.513799310E0,-4.763981700E-1,8.544471115E-2
3.139985960E0,1.483256102E0,-4.525744319E-1,8.239039034E-2
3.142396949E0,1.451491117E0,-4.256964028E-1,7.933606207E-2
3.144807991E0,1.419726133E0,-3.988183439E-1,7.750347257E-2
3.147218980E0,1.389182925E0,-3.688859642E-1,7.444914430E-2
3.149630022E0,1.358028769E0,-3.377318680E-1,7.200568914E-2
3.152041012E0,1.326874614E0,-3.053560257E-1,6.772962958E-2
3.154452053E0,1.295720577E0,-2.711476088E-1,6.650790572E-2
3.156863043E0,1.264566422E0,-2.363283187E-1,6.406444311E-2
3.159274085E0,1.233412385E0,-2.015090138E-1,6.101011857E-2
3.161685074E0,1.202869058E0,-1.648571342E-1,5.856665969E-2
3.164096064E0,1.171715021E0,-1.275943816E-1,5.612320080E-2
3.166507105E0,1.141782641E0,-8.972076327E-2,5.367974192E-2
3.168918095E0,1.111239433E0,-5.245801434E-2,5.245801434E-2
3.171329137E0,1.081917882E0,-1.519526169E-2,5.123628303E-2
3.173740126E0,1.052596331E0,2.206749097E-2,4.696023092E-2
3.176151168E0,1.023885727E0,5.933023989E-2,4.512763396E-2
3.178562157E0,9.957859516E-1,9.720385820E-2,4.390590638E-2
3.180973199E0,9.689078927E-1,1.344666034E-1,4.268417507E-2
3.183384189E0,9.408081174E-1,1.711184978E-1,4.085158184E-2
3.185795230E0,9.157626629E-1,2.077703774E-1,3.840812296E-2
3.188206220E0,8.894954920E-1,2.401462197E-1,3.779725730E-2
3.190617262E0,8.632283211E-1,2.719111741E-1,3.657552972E-2
3.193028251E0,8.400154114E-1,3.048978746E-1,3.474293277E-2
3.195439241E0,8.180242777E-1,3.348302543E-1,3.474293277E-2
3.197850282E0,7.960331440E-1,3.629300296E-1,3.291033953E-2
3.200261272E0,7.734311819E-1,3.891972303E-1,3.107774630E-2
3.202672314E0,7.532726526E-1,4.124100804E-1,3.046688065E-2
3.205083303E0,7.337249517E-1,4.368446767E-1,2.985601686E-2
3.207494345E0,7.178424597E-1,4.557814896E-1,2.863428742E-2
3.209905335E0,7.007382512E-1,4.747183025E-1,2.863428742E-2
3.212316376E0,6.836340427E-1,4.881573021E-1,2.802342176E-2
3.214727366E0,6.708058715E-1,5.028180480E-1,2.741255611E-2
3.217138407E0,6.579777002E-1,5.107592940E-1,2.741255611E-2
3.219549397E0,6.469821334E-1,5.187005401E-1,2.741255611E-2
3.221960439E0,6.353757381E-1,5.217548609E-1,2.680169232E-2
3.224371428E0,6.262127757E-1,5.235874653E-1,2.680169232E-2
3.226782418E0,6.194932461E-1,5.235874653E-1,2.680169232E-2
3.229193460E0,6.133846045E-1,5.174788237E-1,2.802342176E-2
3.231604449E0,6.091085672E-1,5.113701820E-1,2.802342176E-2
3.234015491E0,6.060542464E-1,5.009855032E-1,2.924515121E-2
3.236426480E0,6.048324704E-1,4.863247275E-1,2.924515121E-2
3.238837522E0,6.078867912E-1,4.722748399E-1,2.985601686E-2
3.241248512E0,6.072759628E-1,4.527271688E-1,3.107774630E-2
3.243659553E0,6.121628881E-1,4.319577515E-1,3.168861195E-2
3.246070543E0,6.188823581E-1,4.081340432E-1,3.229947388E-2
3.248481585E0,6.249909997E-1,3.824777007E-1,3.352120519E-2
3.250892574E0,6.335431337E-1,3.525453210E-1,3.413207084E-2
3.253303616E0,6.439278126E-1,3.226129711E-1,3.657552972E-2
3.255714605E0,6.567559838E-1,2.896262705E-1,3.779725730E-2
3.258125647E0,6.708058715E-1,2.541961074E-1,3.901898861E-2
3.260536637E0,6.860775352E-1,2.175442129E-1,4.146244749E-2
3.262947626E0,7.031817436E-1,1.802814752E-1,4.207331315E-2
3.265358668E0,7.227293849E-1,1.411861181E-1,4.329504073E-2
3.267769657E0,7.434988022E-1,1.002581790E-1,4.573849961E-2
3.270180699E0,7.661007643E-1,6.055197120E-2,4.757109284E-2
3.272591689E0,7.899245024E-1,1.779143699E-2,4.879282415E-2
3.275002730E0,8.161917329E-1,-2.252563834E-2,5.001455545E-2
3.277413720E0,8.406262994E-1,-6.528617442E-2,5.306887627E-2
3.279824762E0,8.711695075E-1,-1.074358448E-1,5.429060757E-2
3.282235751E0,9.023236632E-1,-1.501963735E-1,5.673406646E-2
3.284646793E0,9.328668714E-1,-1.905134469E-1,5.978839099E-2
3.287057782E0,9.658535719E-1,-2.308305353E-1,6.101011857E-2
3.289468772E0,1.000672817E0,-2.717584670E-1,6.223184988E-2
3.291879814E0,1.036713839E0,-3.108538091E-1,6.467530876E-2
3.294290803E0,1.074587464E0,-3.481165767E-1,6.467530876E-2
3.296701845E0,1.111239433E0,-3.853793144E-1,6.711876392E-2
3.299112835E0,1.152167320E0,-4.189768732E-1,6.711876392E-2
3.301523876E0,1.191873550E0,-4.531853199E-1,6.956222653E-2
3.303934866E0,1.234634042E0,-4.837285578E-1,7.078395784E-2
3.306345907E0,1.278616309E0,-5.124391913E-1,7.261654735E-2
3.308756897E0,1.322598577E0,-5.393172503E-1,7.322741300E-2
3.311167939E0,1.367802620E0,-5.625301003E-1,7.444914430E-2
3.313578928E0,1.414839149E0,-5.839103460E-1,7.567087561E-2
3.315989970E0,1.461875796E0,-6.022363305E-1,7.689260691E-2
3.318400960E0,1.511355877E0,-6.187296510E-1,7.750347257E-2
3.320812001E0,1.560225010E0,-6.321687102E-1,7.750347257E-2
3.323222991E0,1.609094143E0,-6.425533891E-1,7.872519642E-2
3.325633980E0,1.660406828E0,-6.492729187E-1,7.872519642E-2
3.328045022E0,1.711108565E0,-6.529380679E-1,8.055779338E-2
3.330456012E0,1.763032079E0,-6.547706723E-1,8.055779338E-2
3.332867053E0,1.815566540E0,-6.517163515E-1,7.994692773E-2
3.335278043E0,1.868100882E0,-6.468294263E-1,7.933606207E-2
3.337689085E0,1.921246052E0,-6.376664639E-1,7.872519642E-2
3.340100074E0,1.974391341E0,-6.272817850E-1,7.994692773E-2
3.342511116E0,2.026925802E0,-6.132318974E-1,7.872519642E-2
3.344922105E0,2.079460144E0,-5.973494053E-1,7.811433077E-2
3.347333147E0,2.133216143E0,-5.771908760E-1,7.933606207E-2
3.349744137E0,2.186361313E0,-5.539780259E-1,7.811433077E-2
3.352155178E0,2.238895893E0,-5.289325118E-1,7.750347257E-2
3.354566168E0,2.292651892E0,-5.002219081E-1,7.811433077E-2
3.356977210E0,2.346407890E0,-4.709003866E-1,7.689260691E-2
3.359388199E0,2.396498919E0,-4.397462904E-1,7.567087561E-2
3.361799189E0,2.449033260E0,-4.061487317E-1,7.689260691E-2
3.364210230E0,2.499735117E0,-3.707185686E-1,7.628174126E-2
3.366621220E0,2.552269459E0,-3.316232264E-1,7.444914430E-2
3.369032262E0,2.601138592E0,-2.943604589E-1,7.628174126E-2
3.371443251E0,2.650007725E0,-2.558759749E-1,7.444914430E-2
3.373854293E0,2.698876858E0,-2.131154537E-1,7.383827865E-2
3.376265282E0,2.745913506E0,-1.715766490E-1,7.444914430E-2
3.378676324E0,2.791117430E0,-1.300378442E-1,7.444914430E-2
3.381087314E0,2.838154078E0,-8.727730811E-2,7.506000996E-2
3.383498355E0,2.881525517E0,-4.573849961E-2,7.567087561E-2
3.385909345E0,2.925507784E0,-2.977965865E-3,7.628174126E-2
3.388320387E0,2.966435671E0,3.917170316E-2,7.750347257E-2
3.390731376E0,3.008585453E0,8.071050793E-2,7.750347257E-2
3.393142366E0,3.047069788E0,1.204167232E-1,7.933606207E-2
3.395553407E0,3.085554361E0,1.601229310E-1,7.933606207E-2
3.397964397E0,3.122206211E0,1.986074150E-1,8.116865903E-2
3.400375439E0,3.157636404E0,2.346484363E-1,8.239039034E-2
3.402786428E0,3.190012217E0,2.706894577E-1,8.544471115E-2
3.405197470E0,3.222388029E0,3.024544120E-1,8.666644245E-2
3.407608460E0,3.251709461E0,3.348302543E-1,8.910989761E-2
3.410019501E0,3.281031132E0,3.653734922E-1,9.155336022E-2
3.412430491E0,3.308520079E0,3.928624094E-1,9.277509153E-2
3.414841532E0,3.333565474E0,4.179078639E-1,9.582941234E-2
3.417252522E0,3.356778383E0,4.417316020E-1,9.827287495E-2
3.419663564E0,3.379991293E0,4.625009894E-1,1.013271958E-1
3.422074553E0,3.400149822E0,4.783834815E-1,1.043815166E-1
3.424485595E0,3.418475628E0,4.924333692E-1,1.062141135E-1
3.426896585E0,3.435579777E0,5.052615404E-1,1.104901657E-1
3.429307574E0,3.449629784E0,5.125918984E-1,1.129336283E-1
3.431718616E0,3.461847067E0,5.199222565E-1,1.159879491E-1
3.434129605E0,3.472231865E0,5.223657489E-1,1.196531355E-1
3.436540647E0,3.480173111E0,5.223657489E-1,1.220965981E-1
3.438951637E0,3.486892462E0,5.193114281E-1,1.257617921E-1
3.441362678E0,3.491168499E0,5.132027864E-1,1.288161129E-1
3.443773668E0,3.491779327E0,5.046506524E-1,1.312595755E-1
3.446184710E0,3.493612051E0,4.930442274E-1,1.355356276E-1
3.448595699E0,3.492390394E0,4.783834815E-1,1.385899484E-1
3.451006741E0,3.486892462E0,4.612792730E-1,1.410334110E-1
3.453417730E0,3.482616425E0,4.423424602E-1,1.434768587E-1
3.455828772E0,3.475286007E0,4.191296101E-1,1.471420527E-1
3.458239762E0,3.464290619E0,3.934732676E-1,1.483637840E-1
3.460650751E0,3.453905821E0,3.678169549E-1,1.508072466E-1
3.463061793E0,3.439244986E0,3.391063213E-1,1.532506943E-1
3.465472782E0,3.423973560E0,3.097847998E-1,1.556941569E-1
3.467883824E0,3.407480001E0,2.780198455E-1,1.563050300E-1
3.470294814E0,3.387932539E0,2.438113987E-1,1.569158882E-1
3.472705855E0,3.365330458E0,2.089921087E-1,1.587484777E-1
3.475116845E0,3.343339205E0,1.729510874E-1,1.605810821E-1
3.477527887E0,3.318293810E0,1.356883347E-1,1.611919403E-1
3.479938876E0,3.290804863E0,9.720385820E-2,1.624136716E-1
3.482349918E0,3.260261774E0,5.749764666E-2,1.611919403E-1
3.484760907E0,3.232161999E0,2.023489587E-2,1.605810821E-1
3.487171949E0,3.199175119E0,-1.886045001E-2,1.611919403E-1
3.489582939E0,3.164966822E0,-5.795579776E-2,1.605810821E-1
3.491993928E0,3.130758286E0,-9.521854669E-2,1.605810821E-1
3.494404970E0,3.093495607E0,-1.343138963E-1,1.599702090E-1
3.496815960E0,3.056232929E0,-1.703549176E-1,1.575267613E-1
3.499227001E0,3.018359184E0,-2.076176703E-1,1.569158882E-1
3.501637991E0,2.976820469E0,-2.436586916E-1,1.563050300E-1
3.504049032E0,2.934059858E0,-2.784779668E-1,1.538615674E-1
3.506460022E0,2.890688419E0,-3.114646673E-1,1.514181048E-1
3.508871064E0,2.846706152E0,-3.432296515E-1,1.489746422E-1
3.511282053E0,2.801502228E0,-3.749946058E-1,1.459203213E-1
3.513693095E0,2.753854752E0,-4.049269855E-1,1.428660005E-1
3.516104085E0,2.706207275E0,-4.311941862E-1,1.404225379E-1
3.518515126E0,2.657948971E0,-4.568504989E-1,1.385899484E-1
3.520926116E0,2.606636286E0,-4.794524908E-1,1.355356276E-1
3.523337105E0,2.554712772E0,-5.026653409E-1,1.312595755E-1
3.525748147E0,2.503400326E0,-5.216021538E-1,1.275943816E-1
3.528159137E0,2.450865746E0,-5.380955338E-1,1.239291951E-1
3.530570178E0,2.397109747E0,-5.533671379E-1,1.196531355E-1
3.532981168E0,2.340910196E0,-5.674170256E-1,1.153770834E-1
3.535392210E0,2.288375854E0,-5.771908760E-1,1.129336283E-1
3.537803199E0,2.231565475E0,-5.845212340E-1,1.098793000E-1
3.540214241E0,2.172922373E0,-5.900190473E-1,1.068249792E-1
3.542625230E0,2.116111994E0,-5.936841965E-1,1.007163301E-1
3.545036272E0,2.059301615E0,-5.949059129E-1,9.705114365E-2
3.547447262E0,1.999436736E0,-5.918515921E-1,9.338594973E-2
3.549858251E0,1.941404581E0,-5.881864429E-1,8.849903196E-2
3.552269293E0,1.880928993E0,-5.814669132E-1,8.300124854E-2
3.554680282E0,1.821064234E0,-5.729147792E-1,7.933606207E-2
3.557091324E0,1.762421250E0,-5.619192123E-1,7.567087561E-2
3.559502314E0,1.701334715E0,-5.478693247E-1,7.200568914E-2
3.561913355E0,1.642080903E0,-5.325977206E-1,6.834049523E-2
3.564324345E0,1.580994368E0,-5.148826241E-1,6.406444311E-2
3.566735387E0,1.519907951E0,-4.953349829E-1,6.101011857E-2
3.569146376E0,1.460043192E0,-4.739547074E-1,5.673406646E-2
3.571557418E0,1.400178432E0,-4.507418573E-1,5.123628303E-2
3.573968407E0,1.339702845E0,-4.250855148E-1,4.879282415E-2
3.576379449E0,1.278616309E0,-3.994292021E-1,4.451677203E-2
3.578790439E0,1.218751550E0,-3.725511432E-1,4.085158184E-2
3.581201428E0,1.159497738E0,-3.432296515E-1,3.718639165E-2
3.583612470E0,1.100854635E0,-3.132972717E-1,3.413207084E-2
3.586023460E0,1.043433428E0,-2.821431756E-1,2.985601686E-2
3.588434501E0,9.841794968E-1,-2.509890795E-1,2.619082667E-2
3.590845491E0,9.255365133E-1,-2.180023640E-1,2.252563834E-2
3.593256532E0,8.681151867E-1,-1.850156635E-1,2.008217946E-2
3.595667522E0,8.119156361E-1,-1.514181048E-1,1.641699113E-2
3.598078564E0,7.569378018E-1,-1.172096804E-1,1.275180187E-2
3.600489553E0,7.001274228E-1,-8.239039034E-2,1.030834299E-2
3.602900595E0,6.445387006E-1,-5.001455545E-2,8.475748822E-3
3.605311585E0,5.926151872E-1,-1.519526169E-2,4.810560029E-3
3.607722626E0,5.388590693E-1,1.901316643E-2,1.756236190E-3
3.610133616E0,4.857138693E-1,5.138900131E-2,-1.298087649E-3
3.612544657E0,4.337903559E-1,8.437569439E-2,-4.352411721E-3
3.614955647E0,3.824777007E-1,1.155297980E-1,-8.017600514E-3
3.617366689E0,3.323867917E-1,1.479056329E-1,-1.107192412E-2
3.619777678E0,2.822958827E-1,1.778380126E-1,-1.290451828E-2
3.622188668E0,2.322049737E-1,2.071595192E-1,-1.412624773E-2
3.624599710E0,1.845575273E-1,2.358701676E-1,-1.718057133E-2
3.627010699E0,1.375209391E-1,2.627482116E-1,-2.023489587E-2
3.629421741E0,9.231694043E-2,2.896262705E-1,-2.145662531E-2
3.631832730E0,4.711294547E-2,3.146717250E-1,-2.328922041E-2
3.634243772E0,1.908952487E-3,3.391063213E-1,-2.695440874E-2
3.636654762E0,-3.962985426E-2,3.617083132E-1,-2.939786762E-2
3.639065803E0,-8.300124854E-2,3.806451261E-1,-3.000873141E-2
3.641476793E0,-1.257617921E-1,3.989710510E-1,-3.367391974E-2
3.643887835E0,-1.648571342E-1,4.166861475E-1,-3.611737862E-2
3.646298824E0,-2.051742077E-1,4.319577515E-1,-3.733910993E-2
3.648709814E0,-2.461021543E-1,4.447859228E-1,-3.978256881E-2
3.651120855E0,-2.827540338E-1,4.570032060E-1,-4.161516204E-2
3.653531845E0,-3.187950552E-1,4.679987729E-1,-4.405862093E-2
3.655942887E0,-3.536143601E-1,4.759400189E-1,-4.466948658E-2
3.658353876E0,-3.884336352E-1,4.808269441E-1,-4.528035223E-2
3.660764918E0,-4.220311940E-1,4.851029813E-1,-4.833467677E-2
3.663175907E0,-4.556287527E-1,4.863247275E-1,-5.016727000E-2
3.665586949E0,-4.867828786E-1,4.863247275E-1,-5.199986324E-2
3.667997939E0,-5.161044002E-1,4.857138693E-1,-5.383246019E-2
3.670408980E0,-5.454258919E-1,4.814378023E-1,-5.444332212E-2
3.672819970E0,-5.741365552E-1,4.753291607E-1,-5.749764666E-2
3.675231012E0,-6.022363305E-1,4.667770565E-1,-5.810851231E-2
3.677642001E0,-6.266708970E-1,4.582249522E-1,-5.933023989E-2
3.680052991E0,-6.517163515E-1,4.466184974E-1,-5.994110554E-2
3.682464032E0,-6.767618060E-1,4.337903559E-1,-6.177370250E-2
3.684875022E0,-6.981421113E-1,4.179078639E-1,-6.299543381E-2
3.687286064E0,-7.195223570E-1,4.032471180E-1,-6.360629201E-2
3.689697053E0,-7.402917743E-1,3.836994469E-1,-6.421715766E-2
3.692108095E0,-7.604503036E-1,3.635408878E-1,-6.482802331E-2
3.694519085E0,-7.781654000E-1,3.433823586E-1,-6.543888897E-2
3.696930126E0,-7.946587205E-1,3.213912249E-1,-6.482802331E-2
3.699341116E0,-8.111520410E-1,2.963457704E-1,-6.604975462E-2
3.701752157E0,-8.252019882E-1,2.725220621E-1,-6.727148592E-2
3.704163147E0,-8.404735923E-1,2.462548614E-1,-6.849320978E-2
3.706574137E0,-8.508582711E-1,2.199876755E-1,-6.849320978E-2
3.708985178E0,-8.636864424E-1,1.912770271E-1,-6.666062027E-2
3.711394999E0,-8.728494048E-1,1.637881249E-1,-6.666062027E-2
3.713805780E0,-8.826232553E-1,1.344666034E-1,-6.788235158E-2
3.716216769E0,-8.905645013E-1,1.057559624E-1,-6.849320978E-2
3.718627811E0,-8.997274637E-1,7.582359016E-2,-6.849320978E-2
3.721038800E0,-9.033926725E-1,4.772381112E-2,-6.788235158E-2
3.723449842E0,-9.095013142E-1,1.840230078E-2,-6.727148592E-2
3.725860832E0,-9.149990678E-1,-1.275180187E-2,-6.666062027E-2
3.728271873E0,-9.186642766E-1,-4.329504073E-2,-6.543888897E-2
3.730682863E0,-9.211077094E-1,-7.261654735E-2,-6.604975462E-2
3.733093905E0,-9.223294854E-1,-1.019380614E-1,-6.482802331E-2
3.735504894E0,-9.223294854E-1,-1.306487024E-1,-6.421715766E-2
3.737915936E0,-9.223294854E-1,-1.593593508E-1,-6.360629201E-2
3.740326925E0,-9.217185974E-1,-1.874591261E-1,-6.177370250E-2
3.742737915E0,-9.198859930E-1,-2.143371850E-1,-6.116283685E-2
3.745148957E0,-9.168316722E-1,-2.406043708E-1,-6.055197120E-2
3.747559946E0,-9.131664634E-1,-2.668715417E-1,-5.994110554E-2
3.749970988E0,-9.095013142E-1,-2.913061380E-1,-5.749764666E-2
3.752381977E0,-9.064469934E-1,-3.145190179E-1,-5.749764666E-2
3.754793019E0,-8.997274637E-1,-3.358992636E-1,-5.688678101E-2
3.757204009E0,-8.936188221E-1,-3.572795391E-1,-5.505418777E-2
3.759615050E0,-8.862884641E-1,-3.780489266E-1,-5.444332212E-2
3.762026040E0,-8.801797628E-1,-3.969857395E-1,-5.261072889E-2
3.764437082E0,-8.722385764E-1,-4.122573733E-1,-5.138900131E-2
3.766848071E0,-8.624647260E-1,-4.275289774E-1,-5.016727000E-2
3.769259113E0,-8.533017635E-1,-4.415788651E-1,-5.016727000E-2
3.771670102E0,-8.435279131E-1,-4.544070363E-1,-4.894553870E-2
3.774081092E0,-8.343649507E-1,-4.635699987E-1,-4.711294547E-2
3.776492134E0,-8.227584958E-1,-4.733438492E-1,-4.589121789E-2
3.778903123E0,-8.111520410E-1,-4.800633490E-1,-4.528035223E-2
3.781314165E0,-7.983239293E-1,-4.837285578E-1,-4.344775900E-2
3.783725155E0,-7.867174745E-1,-4.873937368E-1,-4.222602770E-2
3.786136196E0,-7.763327956E-1,-4.898371994E-1,-4.222602770E-2
3.788547186E0,-7.628937364E-1,-4.898371994E-1,-4.161516204E-2
3.790958227E0,-7.488438487E-1,-4.861720204E-1,-4.161516204E-2
3.793369217E0,-7.354048491E-1,-4.812850952E-1,-3.978256881E-2
3.795780259E0,-7.213549614E-1,-4.751764536E-1,-4.039343446E-2
3.798191248E0,-7.073050737E-1,-4.678460658E-1,-3.856083751E-2
3.800602290E0,-6.932551861E-1,-4.574613571E-1,-3.794997558E-2
3.803013280E0,-6.798161268E-1,-4.464657903E-1,-3.611737862E-2
3.805424269E0,-6.651554108E-1,-4.318050444E-1,-3.489565104E-2
3.807835311E0,-6.504946351E-1,-4.159225523E-1,-3.550651670E-2
3.810246300E0,-6.364447474E-1,-4.000400603E-1,-3.428478539E-2
3.812657342E0,-6.217839718E-1,-3.804923892E-1,-3.367391974E-2
3.815068332E0,-6.059014797E-1,-3.603338599E-1,-3.428478539E-2
3.817479373E0,-5.924624801E-1,-3.389535844E-1,-3.428478539E-2
3.819890363E0,-5.784125924E-1,-3.163515925E-1,-3.367391974E-2
3.822301405E0,-5.643627048E-1,-2.906952798E-1,-3.489565104E-2
3.824712394E0,-5.490911007E-1,-2.662606835E-1,-3.306305781E-2
3.827123436E0,-5.362629294E-1,-2.406043708E-1,-3.367391974E-2
3.829534425E0,-5.222130418E-1,-2.118937224E-1,-3.306305781E-2
3.831945467E0,-5.081631541E-1,-1.825722158E-1,-3.489565104E-2
3.834356457E0,-4.959458411E-1,-1.532506943E-1,-3.550651670E-2
3.836767446E0,-4.837285578E-1,-1.227074638E-1,-3.428478539E-2
3.839178488E0,-4.696786702E-1,-9.033162892E-2,-3.428478539E-2
3.841589477E0,-4.580722153E-1,-5.978839099E-2,-3.428478539E-2
3.844000519E0,-4.458549321E-1,-2.741255611E-2,-3.550651670E-2
3.846411509E0,-4.336376488E-1,4.963276442E-3,-3.672824427E-2
3.848822550E0,-4.250855148E-1,3.611737862E-2,-3.550651670E-2
3.851233540E0,-4.147008359E-1,6.971494108E-2,-3.672824427E-2
3.853644582E0,-4.049269855E-1,1.033125073E-1,-3.856083751E-2
3.856055571E0,-3.939314187E-1,1.350774765E-1,-3.856083751E-2
3.858466613E0,-3.872119188E-1,1.668424457E-1,-3.794997558E-2
3.860877602E0,-3.798815310E-1,1.973856837E-1,-3.917170316E-2
3.863288644E0,-3.707185686E-1,2.285397798E-1,-3.917170316E-2
3.865699634E0,-3.639990389E-1,2.596938908E-1,-3.978256881E-2
3.868110623E0,-3.597230017E-1,2.884045243E-1,-4.100430012E-2
3.870521665E0,-3.542252183E-1,3.152825832E-1,-4.283689335E-2
3.872932655E0,-3.499491513E-1,3.433823586E-1,-4.222602770E-2
3.875343696E0,-3.456731141E-1,3.690386713E-1,-4.283689335E-2
3.877754686E0,-3.444513679E-1,3.922515512E-1,-4.344775900E-2
3.880165727E0,-3.432296515E-1,4.148535430E-1,-4.466948658E-2
3.882576717E0,-3.420079052E-1,4.362338185E-1,-4.528035223E-2
3.884987759E0,-3.420079052E-1,4.570032060E-1,-4.589121789E-2
3.887398748E0,-3.432296515E-1,4.747183025E-1,-4.772381112E-2
3.889809790E0,-3.444513679E-1,4.918225110E-1,-4.772381112E-2
3.892220780E0,-3.475056887E-1,5.040398240E-1,-4.772381112E-2
3.894631821E0,-3.517817557E-1,5.162571073E-1,-5.016727000E-2
3.897042811E0,-3.578903973E-1,5.260309577E-1,-5.016727000E-2
3.899453852E0,-3.652207851E-1,5.333613157E-1,-5.077813566E-2
3.901864842E0,-3.707185686E-1,5.406916738E-1,-5.199986324E-2
3.904275832E0,-3.792706728E-1,5.443568826E-1,-5.383246019E-2
3.906686873E0,-3.896553814E-1,5.449677706E-1,-5.322159454E-2
3.909097863E0,-3.988183439E-1,5.443568826E-1,-5.444332212E-2
3.911508905E0,-4.104247689E-1,5.419133902E-1,-5.505418777E-2
3.913919894E0,-4.250855148E-1,5.370265245E-1,-5.505418777E-2
3.916330936E0,-4.391354322E-1,5.290852785E-1,-5.688678101E-2
3.918741925E0,-4.544070363E-1,5.180897117E-1,-5.810851231E-2
3.921152967E0,-4.702895284E-1,5.058723688E-1,-6.055197120E-2
3.923563957E0,-4.880045950E-1,4.912116528E-1,-6.055197120E-2
3.925974998E0,-5.069414377E-1,4.747183025E-1,-5.994110554E-2
3.928385988E0,-5.277107954E-1,4.557814896E-1,-6.055197120E-2
3.930796977E0,-5.478693247E-1,4.356229603E-1,-6.177370250E-2
3.933208019E0,-5.698604584E-1,4.124100804E-1,-6.299543381E-2
3.935619009E0,-5.942950845E-1,3.885863721E-1,-6.299543381E-2
3.938030050E0,-6.199513674E-1,3.629300296E-1,-6.421715766E-2
3.940441040E0,-6.449968219E-1,3.354411125E-1,-6.543888897E-2
3.942852082E0,-6.718748808E-1,3.067304790E-1,-6.604975462E-2
3.945263071E0,-7.005855441E-1,2.755763829E-1,-6.666062027E-2
3.947674113E0,-7.305179238E-1,2.450331300E-1,-6.910407543E-2
3.950085102E0,-7.604503036E-1,2.126573026E-1,-6.910407543E-2
3.952496144E0,-7.922152877E-1,1.796706021E-1,-6.910407543E-2
3.954907134E0,-8.258128166E-1,1.448513120E-1,-6.971494108E-2
3.957318175E0,-8.581886292E-1,1.106428802E-1,-7.093667239E-2
3.959729165E0,-8.942296505E-1,7.582359016E-2,-7.154753804E-2
3.962140155E0,-9.302706718E-1,4.039343446E-2,-7.276926935E-2
3.964551196E0,-9.669225812E-1,5.574141163E-3,-7.399099320E-2
3.966962186E0,-1.004796147E0,-2.863428742E-2,-7.460185885E-2
3.969373227E0,-1.042669773E0,-6.223184988E-2,-7.521272451E-2
3.971784217E0,-1.082376003E0,-9.644027799E-2,-7.521272451E-2
3.974195259E0,-1.123304009E0,-1.324812919E-1,-7.582359016E-2
3.976606248E0,-1.164231896E0,-1.648571342E-1,-7.704532146E-2
3.979017290E0,-1.206381559E0,-1.966221035E-1,-7.887791097E-2
3.981428280E0,-1.249142170E0,-2.271653414E-1,-7.948877662E-2
3.983839321E0,-1.293735266E0,-2.583194375E-1,-7.887791097E-2
3.986250311E0,-1.338328362E0,-2.858083546E-1,-7.948877662E-2
3.988661352E0,-1.384754062E0,-3.139081299E-1,-8.009964228E-2
3.991072342E0,-1.430568933E0,-3.377318680E-1,-8.193223923E-2
3.993483332E0,-1.475162029E0,-3.609447181E-1,-8.193223923E-2
3.995894373E0,-1.524031281E0,-3.817141354E-1,-8.315397054E-2
3.998305363E0,-1.570456982E0,-4.012618065E-1,-8.376483619E-2
4.000716405E0,-1.619326115E0,-4.189768732E-1,-8.376483619E-2
4.003127394E0,-1.668195367E0,-4.348593652E-1,-8.620829135E-2
4.005538436E0,-1.717064500E0,-4.482983947E-1,-8.437569439E-2
4.007949425E0,-1.767155409E0,-4.574613571E-1,-8.620829135E-2
4.010360467E0,-1.817246318E0,-4.666243196E-1,-8.743002266E-2
4.012771457E0,-1.865504622E0,-4.709003866E-1,-8.681915700E-2
4.015182498E0,-1.915595531E0,-4.739547074E-1,-8.743002266E-2
4.017593488E0,-1.967519045E0,-4.733438492E-1,-8.865175396E-2
4.020004530E0,-2.016999245E0,-4.715112448E-1,-8.926261961E-2
4.022415519E0,-2.068311691E0,-4.660134614E-1,-9.048434347E-2
4.024826509E0,-2.117181063E0,-4.592939615E-1,-9.048434347E-2
4.027237550E0,-2.167271852E0,-4.482983947E-1,-9.170607477E-2
4.029648540E0,-2.217973709E0,-4.373028278E-1,-9.170607477E-2
4.032059582E0,-2.266842842E0,-4.214203358E-1,-9.231694043E-2
4.034470571E0,-2.316933632E0,-4.037052691E-1,-9.476039559E-2
4.036881613E0,-2.365803003E0,-3.835467100E-1,-9.476039559E-2
4.039292602E0,-2.414061308E0,-3.633881807E-1,-9.598212689E-2
4.041703644E0,-2.461708784E0,-3.383427262E-1,-9.659299254E-2
4.044114634E0,-2.509967089E0,-3.126864135E-1,-9.842558950E-2
4.046525675E0,-2.557614565E0,-2.858083546E-1,-1.002581790E-1
4.048936665E0,-2.604040146E0,-2.570977211E-1,-1.008690447E-1
4.051347707E0,-2.649244308E0,-2.253327519E-1,-1.020907760E-1
4.053758696E0,-2.695669889E0,-1.935677826E-1,-1.045342386E-1
4.056169686E0,-2.739652157E0,-1.605810821E-1,-1.069776937E-1
4.058580727E0,-2.781190872E0,-1.263726503E-1,-1.075885594E-1
4.060991717E0,-2.823951483E0,-8.972076327E-2,-1.106428802E-1
4.063402759E0,-2.865490437E0,-5.429060757E-2,-1.118646115E-1
4.065813748E0,-2.904585600E0,-1.824958436E-2,-1.143080741E-1
4.068224790E0,-2.943070173E0,1.901316643E-2,-1.167515293E-1
4.070635780E0,-2.980943680E0,5.444332212E-2,-1.204167232E-1
4.073046821E0,-3.019428253E0,9.048434347E-2,-1.210275814E-1
4.075457811E0,-3.053025723E0,1.277471036E-1,-1.234710440E-1
4.077868852E0,-3.087234259E0,1.643989831E-1,-1.259144992E-1
4.080279842E0,-3.119610071E0,1.986074150E-1,-1.283579618E-1
4.082690832E0,-3.150153399E0,2.328158319E-1,-1.314122826E-1
4.085101873E0,-3.181918383E0,2.664133906E-1,-1.350774765E-1
4.087512863E0,-3.209407091E0,2.987892330E-1,-1.381317973E-1
4.089923905E0,-3.235063553E0,3.293324709E-1,-1.411861181E-1
4.092334894E0,-3.261330605E0,3.592648506E-1,-1.436295807E-1
4.094745936E0,-3.286987066E0,3.867537677E-1,-1.472947747E-1
4.097156925E0,-3.307145596E0,4.130209386E-1,-1.509599537E-1
4.099567967E0,-3.326693296E0,4.350120723E-1,-1.546251476E-1
4.101978957E0,-3.347462654E0,4.570032060E-1,-1.576794684E-1
4.104389998E0,-3.366399527E0,4.759400189E-1,-1.607337892E-1
4.106800988E0,-3.381060123E0,4.924333692E-1,-1.643989831E-1
4.109212030E0,-3.393888474E0,5.077049732E-1,-1.680641770E-1
4.111623019E0,-3.405494690E0,5.199222565E-1,-1.698967665E-1
4.114034061E0,-3.414047003E0,5.309178233E-1,-1.741728187E-1
4.116445050E0,-3.425042391E0,5.351939201E-1,-1.784488708E-1
4.118856040E0,-3.429929495E0,5.400808454E-1,-1.808923334E-1
4.121267082E0,-3.434816360E0,5.413025618E-1,-1.821140647E-1
4.123678071E0,-3.439092398E0,5.388590693E-1,-1.851683855E-1
4.126089113E0,-3.440314054E0,5.351939201E-1,-1.894444376E-1
4.128500102E0,-3.438481569E0,5.278635025E-1,-1.906661689E-1
4.130911144E0,-3.436038017E0,5.180897117E-1,-1.931096315E-1
4.133322134E0,-3.431151152E0,5.058723688E-1,-1.949422210E-1
4.135733175E0,-3.425042391E0,4.924333692E-1,-1.973856837E-1
4.138144165E0,-3.417101145E0,4.747183025E-1,-1.986074150E-1
4.140555207E0,-3.407327414E0,4.557814896E-1,-1.998291463E-1
4.142966196E0,-3.395720959E0,4.331794977E-1,-2.004400045E-1
4.145377238E0,-3.381060123E0,4.093557596E-1,-1.998291463E-1
4.147788227E0,-3.366399527E0,3.836994469E-1,-2.016617358E-1
4.150199217E0,-3.349906206E0,3.549887836E-1,-2.022725940E-1
4.152610259E0,-3.329136610E0,3.256672919E-1,-2.022725940E-1
4.155021248E0,-3.309588909E0,2.945131958E-1,-2.041051984E-1
4.157432290E0,-3.286376238E0,2.621373534E-1,-2.028834671E-1
4.159843280E0,-3.262552500E0,2.285397798E-1,-2.022725940E-1
4.162254321E0,-3.237506866E0,1.949422210E-1,-2.016617358E-1
4.164665311E0,-3.211850643E0,1.595120728E-1,-2.010508776E-1
4.167076352E0,-3.184361696E0,1.222493127E-1,-1.992182732E-1
4.169487342E0,-3.154429436E0,8.681915700E-2,-1.967748106E-1
4.171898384E0,-3.123275280E0,4.955640435E-2,-1.949422210E-1
4.174309373E0,-3.090288639E0,1.412624773E-2,-1.931096315E-1
4.176720363E0,-3.056080103E0,-2.191477455E-2,-1.918879002E-1
4.179131405E0,-3.021260738E0,-5.917752534E-2,-1.888335794E-1
4.181542394E0,-2.984608889E0,-9.338594973E-2,-1.863901168E-1
4.183953436E0,-2.948567867E0,-1.282052398E-1,-1.833357960E-1
4.186364425E0,-2.910694361E0,-1.624136716E-1,-1.808923334E-1
4.188775467E0,-2.869766474E0,-1.960112303E-1,-1.784488708E-1
4.191186457E0,-2.828838348E0,-2.265544683E-1,-1.735619605E-1
4.193597498E0,-2.787299633E0,-2.564868629E-1,-1.717293561E-1
4.196008488E0,-2.744539022E0,-2.851974964E-1,-1.680641770E-1
4.198419530E0,-2.701167583E0,-3.120755553E-1,-1.637881249E-1
4.200830519E0,-2.657796383E0,-3.383427262E-1,-1.595120728E-1
4.203241561E0,-2.613814116E0,-3.609447181E-1,-1.582903415E-1
4.205652550E0,-2.568609953E0,-3.823249936E-1,-1.527925581E-1
4.208063592E0,-2.521573544E0,-4.012618065E-1,-1.485165060E-1
4.210474582E0,-2.473926067E0,-4.195877314E-1,-1.448513120E-1
4.212885571E0,-2.425667763E0,-4.342485070E-1,-1.417969912E-1
4.215296613E0,-2.378631115E0,-4.470766485E-1,-1.381317973E-1
4.217707602E0,-2.330372810E0,-4.580722153E-1,-1.350774765E-1
4.220118644E0,-2.280281782E0,-4.635699987E-1,-1.308014244E-1
4.222529634E0,-2.230801821E0,-4.690677822E-1,-1.283579618E-1
4.224940675E0,-2.180099964E0,-4.721221030E-1,-1.253036410E-1
4.227351665E0,-2.129398346E0,-4.715112448E-1,-1.222493127E-1
4.229762707E0,-2.079307318E0,-4.702895284E-1,-1.173623949E-1
4.232173696E0,-2.029827356E0,-4.641808867E-1,-1.143080741E-1
4.234584738E0,-1.979125500E0,-4.586831033E-1,-1.118646115E-1
4.236995727E0,-1.928423762E0,-4.495201111E-1,-1.094211563E-1
4.239406769E0,-1.877111077E0,-4.379136860E-1,-1.063668281E-1
4.241817759E0,-1.825187564E0,-4.226420820E-1,-1.033125073E-1
4.244228748E0,-1.775096655E0,-4.079813063E-1,-1.014799103E-1
4.246639790E0,-1.723784089E0,-3.878227770E-1,-9.842558950E-2
4.249050780E0,-1.674304008E0,-3.676642478E-1,-9.659299254E-2
4.251461821E0,-1.624823928E0,-3.462839723E-1,-9.353867173E-2
4.253872811E0,-1.574733019E0,-3.224602342E-1,-9.170607477E-2
4.256283852E0,-1.526474714E0,-2.961930633E-1,-9.048434347E-2
4.258694842E0,-1.476994634E0,-2.699258626E-1,-8.804088831E-2
4.261105884E0,-1.429347277E0,-2.412152290E-1,-8.804088831E-2
4.263516873E0,-1.381699800E0,-2.112828493E-1,-8.559742570E-2
4.265927915E0,-1.333441496E0,-1.807396114E-1,-8.498656005E-2
4.268338905E0,-1.287015676E0,-1.489746422E-1,-8.254310489E-2
4.270749894E0,-1.241200924E0,-1.178205460E-1,-8.193223923E-2
4.273160936E0,-1.197829485E0,-8.544471115E-2,-8.132137358E-2
4.275571925E0,-1.152014613E0,-5.123628303E-2,-8.132137358E-2
4.277982967E0,-1.108032346E0,-1.763872057E-2,-7.948877662E-2
4.280393957E0,-1.065271854E0,1.473711245E-2,-7.887791097E-2
4.282804998E0,-1.025565624E0,4.772381112E-2,-7.948877662E-2
4.285215988E0,-9.834159613E-1,8.071050793E-2,-7.948877662E-2
4.287627030E0,-9.424880147E-1,1.149189398E-1,-7.704532146E-2
4.290038019E0,-9.046143889E-1,1.448513120E-1,-7.643445581E-2
4.292449061E0,-8.649081588E-1,1.772271395E-1,-7.643445581E-2
4.294860050E0,-8.288671374E-1,2.077703774E-1,-7.582359016E-2
4.297271040E0,-7.916043997E-1,2.358701676E-1,-7.521272451E-2
4.299682082E0,-7.573959827E-1,2.658025324E-1,-7.582359016E-2
4.302093071E0,-7.244092822E-1,2.920697331E-1,-7.704532146E-2
4.304504113E0,-6.877573729E-1,3.207803667E-1,-7.521272451E-2
4.306915102E0,-6.578249931E-1,3.427715003E-1,-7.521272451E-2
4.309326144E0,-6.242274642E-1,3.653734922E-1,-7.521272451E-2
4.311737134E0,-5.949059129E-1,3.873646259E-1,-7.521272451E-2
4.314148175E0,-5.655844212E-1,4.075231552E-1,-7.460185885E-2
4.316559165E0,-5.380955338E-1,4.252382517E-1,-7.460185885E-2
4.318970207E0,-5.106065869E-1,4.429533184E-1,-7.399099320E-2
4.321381196E0,-4.849502742E-1,4.563923478E-1,-7.460185885E-2
4.323792238E0,-4.599048197E-1,4.679987729E-1,-7.399099320E-2
4.326203227E0,-4.354702234E-1,4.783834815E-1,-7.460185885E-2
4.328614269E0,-4.134790897E-1,4.857138693E-1,-7.338013500E-2
4.331025259E0,-3.920988441E-1,4.930442274E-1,-7.276926935E-2
4.333436248E0,-3.707185686E-1,4.954876900E-1,-7.338013500E-2
4.335847290E0,-3.487274349E-1,4.985420108E-1,-7.338013500E-2
4.338258280E0,-3.328449428E-1,4.973202944E-1,-7.338013500E-2
4.340669321E0,-3.139081299E-1,4.960985482E-1,-7.276926935E-2
4.343080311E0,-2.986365259E-1,4.918225110E-1,-7.215840369E-2
4.345491352E0,-2.827540338E-1,4.857138693E-1,-7.154753804E-2
4.347902342E0,-2.687041461E-1,4.777726233E-1,-7.154753804E-2
4.350313384E0,-2.564868629E-1,4.667770565E-1,-7.032580674E-2
4.352724373E0,-2.454912812E-1,4.533380270E-1,-6.910407543E-2
4.355135415E0,-2.326631248E-1,4.417316020E-1,-6.849320978E-2
4.357546405E0,-2.228892893E-1,4.264599681E-1,-6.910407543E-2
4.359957446E0,-2.149480432E-1,4.075231552E-1,-6.849320978E-2
4.362368436E0,-2.070067972E-1,3.879754841E-1,-6.788235158E-2
4.364779425E0,-1.990655661E-1,3.672060966E-1,-6.788235158E-2
4.367190467E0,-1.929569095E-1,3.458258212E-1,-6.788235158E-2
4.369601457E0,-1.880699992E-1,3.226129711E-1,-6.666062027E-2
4.372012498E0,-1.831830740E-1,2.981783748E-1,-6.604975462E-2
4.374423488E0,-1.807396114E-1,2.725220621E-1,-6.666062027E-2
4.376834530E0,-1.795178801E-1,2.474765927E-1,-6.482802331E-2
4.379245519E0,-1.776852906E-1,2.199876755E-1,-6.360629201E-2
4.381656561E0,-1.770744324E-1,1.924987584E-1,-6.360629201E-2
4.384067550E0,-1.782961637E-1,1.619555205E-1,-6.421715766E-2
4.386478592E0,-1.789070219E-1,1.332448870E-1,-6.299543381E-2
4.388889582E0,-1.801287532E-1,1.051450968E-1,-6.360629201E-2
4.391300623E0,-1.819613427E-1,7.582359016E-2,-6.177370250E-2
4.393711613E0,-1.862373948E-1,4.528035223E-2,-6.177370250E-2
4.396122602E0,-1.911243200E-1,1.534797717E-2,-6.177370250E-2
4.398533644E0,-1.954003721E-1,-1.336266659E-2,-6.177370250E-2
4.400944634E0,-2.008981556E-1,-4.207331315E-2,-5.994110554E-2
4.403355675E0,-2.051742077E-1,-7.078395784E-2,-5.994110554E-2
4.405766665E0,-2.118937224E-1,-9.949459881E-2,-5.933023989E-2
4.408177707E0,-2.198349684E-1,-1.282052398E-1,-5.933023989E-2
4.410588696E0,-2.271653414E-1,-1.563050300E-1,-5.871937796E-2
4.412999738E0,-2.344957143E-1,-1.813504845E-1,-5.871937796E-2
4.415410727E0,-2.424369603E-1,-2.070067972E-1,-5.933023989E-2
4.417821769E0,-2.503781915E-1,-2.320522517E-1,-5.810851231E-2
4.420232759E0,-2.607629001E-1,-2.546542585E-1,-5.688678101E-2
4.422643748E0,-2.711476088E-1,-2.772562504E-1,-5.871937796E-2
4.425054790E0,-2.803105712E-1,-3.010799885E-1,-5.871937796E-2
4.427465780E0,-2.913061380E-1,-3.212385178E-1,-5.749764666E-2
4.429876821E0,-3.010799885E-1,-3.395644724E-1,-5.749764666E-2
4.432287811E0,-3.132972717E-1,-3.585012555E-1,-5.810851231E-2
4.434698852E0,-3.224602342E-1,-3.737728894E-1,-5.871937796E-2
4.437109842E0,-3.340666890E-1,-3.884336352E-1,-5.749764666E-2
4.439520884E0,-3.456731141E-1,-4.012618065E-1,-5.749764666E-2
4.441931873E0,-3.560578227E-1,-4.134790897E-1,-5.749764666E-2
4.444342915E0,-3.688859642E-1,-4.232529402E-1,-5.749764666E-2
4.446753905E0,-3.792706728E-1,-4.311941862E-1,-5.810851231E-2
4.449164946E0,-3.914879560E-1,-4.373028278E-1,-5.749764666E-2
4.451575936E0,-4.030944109E-1,-4.421897531E-1,-5.749764666E-2
4.453986925E0,-4.147008359E-1,-4.446332157E-1,-5.810851231E-2
4.456397967E0,-4.281398654E-1,-4.482983947E-1,-5.749764666E-2
4.458808957E0,-4.379136860E-1,-4.476875365E-1,-5.810851231E-2
4.461219998E0,-4.489092529E-1,-4.458549321E-1,-5.810851231E-2
4.463630988E0,-4.599048197E-1,-4.409680068E-1,-5.871937796E-2
4.466042030E0,-4.715112448E-1,-4.373028278E-1,-5.871937796E-2
4.468453019E0,-4.831176698E-1,-4.305832982E-1,-6.055197120E-2
4.470864061E0,-4.935023785E-1,-4.226420820E-1,-6.116283685E-2
4.473275050E0,-5.038870573E-1,-4.128682315E-1,-5.994110554E-2
4.475686092E0,-5.142717957E-1,-4.006509483E-1,-6.116283685E-2
4.478097082E0,-5.240456462E-1,-3.884336352E-1,-6.116283685E-2
4.480508123E0,-5.319868922E-1,-3.719402850E-1,-6.177370250E-2
4.482919113E0,-5.423715711E-1,-3.560578227E-1,-6.116283685E-2
4.485330102E0,-5.527562499E-1,-3.395644724E-1,-6.238456443E-2
4.487741144E0,-5.594757795E-1,-3.206276596E-1,-6.299543381E-2
4.490152134E0,-5.680279136E-1,-3.016908467E-1,-6.421715766E-2
4.492563175E0,-5.747473836E-1,-2.790888548E-1,-6.299543381E-2
4.494974165E0,-5.820778012E-1,-2.583194375E-1,-6.482802331E-2
4.497385207E0,-5.894081593E-1,-2.357174456E-1,-6.482802331E-2
4.499796196E0,-5.936841965E-1,-2.118937224E-1,-6.666062027E-2
4.502207238E0,-5.991820097E-1,-1.868482679E-1,-6.666062027E-2
4.504618227E0,-6.040689349E-1,-1.636354029E-1,-6.788235158E-2
4.507029269E0,-6.083449721E-1,-1.373682171E-1,-6.849320978E-2
4.509440259E0,-6.120101213E-1,-1.104901657E-1,-6.849320978E-2
4.511851248E0,-6.144536138E-1,-8.300124854E-2,-6.971494108E-2
4.514262290E0,-6.156753302E-1,-5.673406646E-2,-7.093667239E-2
4.516673280E0,-6.168970466E-1,-3.046688065E-2,-7.154753804E-2
4.519084321E0,-6.181188226E-1,-2.977965865E-3,-7.215840369E-2
4.521495311E0,-6.168970466E-1,2.451094985E-2,-7.276926935E-2
4.523906352E0,-6.156753302E-1,5.077813566E-2,-7.215840369E-2
4.526317342E0,-6.120101213E-1,8.009964228E-2,-7.338013500E-2
4.528728384E0,-6.113992929E-1,1.039233729E-1,-7.460185885E-2
4.531139373E0,-6.071232557E-1,1.308014244E-1,-7.460185885E-2
4.533550415E0,-6.028471589E-1,1.570686102E-1,-7.704532146E-2
4.535961405E0,-5.961276889E-1,1.833357960E-1,-7.582359016E-2
4.538372446E0,-5.918515921E-1,2.065486610E-1,-7.704532146E-2
4.540783436E0,-5.832995176E-1,2.297615111E-1,-7.887791097E-2
4.543194425E0,-5.759691000E-1,2.529743910E-1,-7.765618712E-2
4.545605467E0,-5.674170256E-1,2.755763829E-1,-7.826705277E-2
4.548016457E0,-5.570323467E-1,2.957349122E-1,-7.948877662E-2
4.550427498E0,-5.472584963E-1,3.146717250E-1,-8.009964228E-2
4.552838488E0,-5.350412130E-1,3.329976499E-1,-8.009964228E-2
4.555249530E0,-5.216021538E-1,3.513236046E-1,-7.948877662E-2
4.557660519E0,-5.081631541E-1,3.684278131E-1,-8.132137358E-2
4.560071561E0,-4.928915203E-1,3.824777007E-1,-8.009964228E-2
4.562482550E0,-4.770090282E-1,3.946950138E-1,-8.132137358E-2
4.564893592E0,-4.605156779E-1,4.063014388E-1,-7.948877662E-2
4.567304582E0,-4.415788651E-1,4.172970057E-1,-7.948877662E-2
4.569715623E0,-4.226420820E-1,4.258491099E-1,-8.071050793E-2
4.572126613E0,-4.030944109E-1,4.325686097E-1,-8.009964228E-2
4.574537602E0,-3.823249936E-1,4.368446767E-1,-7.948877662E-2
4.576948644E0,-3.585012555E-1,4.411207438E-1,-7.948877662E-2
4.579359634E0,-3.358992636E-1,4.417316020E-1,-7.887791097E-2
4.581770675E0,-3.114646673E-1,4.423424602E-1,-7.826705277E-2
4.584181665E0,-2.864192128E-1,4.411207438E-1,-7.887791097E-2
4.586592707E0,-2.607629001E-1,4.368446767E-1,-7.643445581E-2
4.589003696E0,-2.314413935E-1,4.325686097E-1,-7.521272451E-2
4.591414738E0,-2.039524764E-1,4.246273935E-1,-7.338013500E-2
4.593825727E0,-1.740200967E-1,4.160752594E-1,-7.399099320E-2
4.596236769E0,-1.440877318E-1,4.050796926E-1,-7.276926935E-2
4.598647759E0,-1.123227626E-1,3.940841556E-1,-7.154753804E-2
4.601058800E0,-8.055779338E-2,3.800342381E-1,-7.032580674E-2
4.603469790E0,-4.634936526E-2,3.659843504E-1,-6.849320978E-2
4.605880832E0,-1.214093715E-2,3.482692838E-1,-6.727148592E-2
4.608291821E0,2.390008420E-2,3.305542171E-1,-6.543888897E-2
4.610702811E0,5.994110554E-2,3.103956580E-1,-6.360629201E-2
4.613113852E0,9.842558950E-2,2.914588451E-1,-6.116283685E-2
4.615524842E0,1.356883347E-1,2.676351368E-1,-5.933023989E-2
4.617935884E0,1.766162813E-1,2.474765927E-1,-5.749764666E-2
4.620346873E0,2.151007652E-1,2.230419964E-1,-5.566505343E-2
4.622757915E0,2.566395700E-1,1.967748106E-1,-5.505418777E-2
4.625168905E0,2.975675166E-1,1.705076247E-1,-5.322159454E-2
4.627579946E0,3.397171795E-1,1.460730433E-1,-5.077813566E-2
4.629990936E0,3.824777007E-1,1.191949919E-1,-4.894553870E-2
4.632401977E0,4.276817143E-1,9.231694043E-2,-4.589121789E-2
4.634812967E0,4.734965563E-1,6.360629201E-2,-4.283689335E-2
4.637223957E0,5.205331445E-1,3.733910993E-2,-4.100430012E-2
4.639634998E0,5.645154119E-1,8.017600514E-3,-3.794997558E-2
4.642045988E0,6.127737164E-1,-1.947131567E-2,-3.672824427E-2
4.644457030E0,6.610320210E-1,-4.757109284E-2,-3.428478539E-2
4.646868019E0,7.099012136E-1,-7.567087561E-2,-3.123046272E-2
4.649279061E0,7.606030107E-1,-1.037706509E-1,-2.939786762E-2
4.651690050E0,8.094722033E-1,-1.318704337E-1,-2.695440874E-2
4.654101092E0,8.607848287E-1,-1.581376195E-1,-2.451094985E-2
4.656512082E0,9.108757377E-1,-1.850156635E-1,-2.328922041E-2
4.658923123E0,9.640209675E-1,-2.088394016E-1,-2.023489587E-2
4.661334113E0,1.014111876E0,-2.338848561E-1,-1.901316643E-2
4.663745155E0,1.066646218E0,-2.577085793E-1,-1.534797717E-2
4.666156144E0,1.121624112E0,-2.803105712E-1,-1.473711245E-2
4.668567134E0,1.174769282E0,-3.010799885E-1,-1.229365356E-2
4.670978175E0,1.227303743E0,-3.200167716E-1,-1.046105940E-2
4.673389165E0,1.282892346E0,-3.377318680E-1,-8.628465235E-3
4.675800207E0,1.336648464E0,-3.554469347E-1,-8.017600514E-3
4.678211196E0,1.391626358E0,-3.707185686E-1,-6.795870606E-3
4.680622238E0,1.445993304E0,-3.841575980E-1,-4.963276442E-3
4.683033227E0,1.502192855E0,-3.957640231E-1,-3.130682046E-3
4.685444269E0,1.555338144E0,-4.055378437E-1,-1.908952487E-3
4.687855259E0,1.612759352E0,-4.128682315E-1,-6.872228696E-4
4.690266300E0,1.665904641E0,-4.208094776E-1,1.145371469E-3
4.692677290E0,1.722715020E0,-4.244746566E-1,1.756236190E-3
4.695088332E0,1.777081966E0,-4.269181192E-1,1.756236190E-3
4.697499321E0,1.830227256E0,-4.263072610E-1,2.367100911E-3
4.699910311E0,1.886426806E0,-4.244746566E-1,2.977965865E-3
4.702321352E0,1.942015529E0,-4.189768732E-1,4.199695308E-3
4.704732342E0,1.995160699E0,-4.147008359E-1,6.643154658E-3
4.707143384E0,2.047084332E0,-4.073704481E-1,6.032289471E-3
4.709554373E0,2.101451159E0,-3.957640231E-1,6.032289471E-3
4.711965415E0,2.155207396E0,-3.823249936E-1,6.643154658E-3
4.714376405E0,2.207741737E0,-3.688859642E-1,6.643154658E-3
4.716787446E0,2.259665251E0,-3.523926139E-1,6.643154658E-3
4.719198436E0,2.310366869E0,-3.346775472E-1,7.254019380E-3
4.721609477E0,2.359236240E0,-3.151298761E-1,7.254019380E-3
4.724020467E0,2.408716202E0,-2.937496006E-1,9.086613543E-3
4.726431457E0,2.458196163E0,-2.705367506E-1,8.475748822E-3
4.728842498E0,2.505843639E0,-2.454912812E-1,7.864884101E-3
4.731253488E0,2.552880287E0,-2.204458266E-1,9.697478265E-3
4.733664530E0,2.599306107E0,-1.923460513E-1,7.864884101E-3
4.736075519E0,2.645120859E0,-1.642462611E-1,8.475748822E-3
4.738486561E0,2.689713955E0,-1.355356276E-1,9.697478265E-3
4.740897550E0,2.730641842E0,-1.049923822E-1,1.030834299E-2
4.743308592E0,2.774013281E0,-7.383827865E-2,1.214093715E-2
4.745719582E0,2.815552235E0,-4.207331315E-2,1.214093715E-2
4.748130623E0,2.855258226E0,-1.030834299E-2,1.214093715E-2
4.750541613E0,2.893131971E0,2.390008420E-2,1.397353224E-2
4.752952655E0,2.931005478E0,5.627591908E-2,1.397353224E-2
4.755363644E0,2.966435671E0,8.865175396E-2,1.519526169E-2
4.757774634E0,3.001255035E0,1.204167232E-1,1.580612548E-2
4.760185675E0,3.034241676E0,1.527925581E-1,1.702785492E-2
4.762596665E0,3.065395832E0,1.851683855E-1,1.886045001E-2
4.765007707E0,3.097160816E0,2.163224965E-1,2.130390890E-2
4.767418696E0,3.124649763E0,2.462548614E-1,2.191477455E-2
4.769829738E0,3.152138710E0,2.749654949E-1,2.313650399E-2
4.772240727E0,3.179016590E0,3.042870164E-1,2.496909723E-2
4.774651769E0,3.203451157E0,3.317759335E-1,2.619082667E-2
4.777062759E0,3.224220753E0,3.580431044E-1,2.802342176E-2
4.779473800E0,3.246822596E0,3.818668425E-1,3.107774630E-2
4.781884790E0,3.263926983E0,4.032471180E-1,3.229947388E-2
4.784295832E0,3.284085512E0,4.264599681E-1,3.413207084E-2
4.786706821E0,3.296913624E0,4.447859228E-1,3.840812296E-2
4.789117811E0,3.311574221E0,4.625009894E-1,4.085158184E-2
4.791528852E0,3.325013399E0,4.783834815E-1,4.268417507E-2
4.793939842E0,3.333565474E0,4.912116528E-1,4.573849961E-2
4.796350884E0,3.343950272E0,5.015963316E-1,4.879282415E-2
4.798761873E0,3.351891518E0,5.095375776E-1,5.123628303E-2
4.801172915E0,3.354334831E0,5.150353909E-1,5.306887627E-2
4.803583905E0,3.358000040E0,5.199222565E-1,5.612320080E-2
4.805994946E0,3.359221697E0,5.217548609E-1,5.978839099E-2
4.808405936E0,3.358610868E0,5.193114281E-1,6.284271181E-2
4.810816977E0,3.356778383E0,5.156462193E-1,6.528617442E-2
4.813227967E0,3.353113174E0,5.113701820E-1,6.528617442E-2
4.815638957E0,3.345171928E0,5.015963316E-1,6.956222653E-2
4.818049998E0,3.339063168E0,4.918225110E-1,7.200568914E-2
4.820460988E0,3.329289436E0,4.783834815E-1,7.444914430E-2
4.822872030E0,3.317682981E0,4.625009894E-1,7.750347257E-2
4.825283019E0,3.303632975E0,4.447859228E-1,7.933606207E-2
4.827694061E0,3.290804863E0,4.258491099E-1,8.055779338E-2
4.830105050E0,3.274311543E0,4.038579762E-1,8.422297984E-2
4.832516092E0,3.255985737E0,3.806451261E-1,8.605557680E-2
4.834927082E0,3.233994484E0,3.549887836E-1,8.727730811E-2
4.837338123E0,3.214446783E0,3.281107545E-1,8.849903196E-2
4.839749113E0,3.191233873E0,3.000109792E-1,9.033162892E-2
4.842160155E0,3.166799307E0,2.706894577E-1,9.033162892E-2
4.844571144E0,3.140532255E0,2.395353466E-1,9.216422588E-2
4.846982134E0,3.114264965E0,2.077703774E-1,9.460768104E-2
4.849393175E0,3.086165190E0,1.753945500E-1,9.399681538E-2
4.851804165E0,3.055622101E0,1.430187225E-1,9.521854669E-2
