"Time (s)","Gyroscope x (rad/s)","Gyroscope y (rad/s)","Gyroscope z (rad/s)"
8.088553600E-2,3.733910993E-2,1.979965419E-1,-1.191949919E-1
8.329657700E-2,3.184132650E-2,1.766162813E-1,-1.228601784E-1
8.570756700E-2,2.817613818E-2,1.558468789E-1,-1.277471036E-1
8.811860900E-2,2.328922041E-2,1.332448870E-1,-1.332448870E-1
9.052959800E-2,1.901316643E-2,1.118646115E-1,-1.362992078E-1
9.294064000E-2,1.840230078E-2,9.048434347E-2,-1.405752599E-1
9.535168200E-2,1.473711245E-2,6.971494108E-2,-1.436295807E-1
9.776267100E-2,1.290451828E-2,5.016727000E-2,-1.479056329E-1
1.001737130E-1,9.850194678E-3,2.939786762E-2,-1.503490955E-1
1.025847020E-1,9.239329956E-3,1.229365356E-2,-1.527925581E-1
1.049957440E-1,9.239329956E-3,-3.588830587E-3,-1.546251476E-1
1.074067340E-1,7.406735327E-3,-1.886045001E-2,-1.570686102E-1
1.098177750E-1,8.628465235E-3,-3.168861195E-2,-1.601229310E-1
1.122288170E-1,6.795870606E-3,-4.390590638E-2,-1.625663936E-1
1.146398070E-1,6.185005885E-3,-5.306887627E-2,-1.656207144E-1
1.170508480E-1,4.963276442E-3,-6.162098423E-2,-1.686750352E-1
1.194618380E-1,3.741546767E-3,-6.772962958E-2,-1.711184978E-1
1.218728800E-1,5.574141163E-3,-7.139482349E-2,-1.753945500E-1
1.242839210E-1,6.185005885E-3,-7.444914430E-2,-1.784488708E-1
1.266949110E-1,9.850194678E-3,-7.506000996E-2,-1.827249229E-1
1.291059520E-1,1.351538301E-2,-7.506000996E-2,-1.888335794E-1
1.315169420E-1,1.779143699E-2,-7.322741300E-2,-1.937204897E-1
1.339279840E-1,2.023489587E-2,-6.895136088E-2,-1.992182732E-1
1.363389730E-1,2.451094985E-2,-6.467530876E-2,-2.053269297E-1
1.387500150E-1,2.634354308E-2,-5.917752534E-2,-2.108247131E-1
1.411610570E-1,3.245219216E-2,-5.306887627E-2,-2.157116234E-1
1.435720460E-1,3.611737862E-2,-4.696023092E-2,-2.218202800E-1
1.459830880E-1,4.100430012E-2,-3.840812296E-2,-2.267071903E-1
1.483940770E-1,4.711294547E-2,-2.863428742E-2,-2.291506529E-1
1.508051190E-1,5.261072889E-2,-1.947131567E-2,-2.340375632E-1
1.532161090E-1,5.994110554E-2,-1.091920771E-2,-2.401462197E-1
1.556271500E-1,6.360629201E-2,7.635809743E-5,-2.444222718E-1
1.580381920E-1,6.910407543E-2,1.168278884E-2,-2.480874658E-1
1.604491820E-1,7.215840369E-2,2.206749097E-2,-2.517526448E-1
1.628602230E-1,7.582359016E-2,3.184132650E-2,-2.548069656E-1
1.652712130E-1,7.826705277E-2,4.466948658E-2,-2.566395700E-1
1.676822550E-1,7.887791097E-2,5.505418777E-2,-2.578612864E-1
1.700932960E-1,8.071050793E-2,6.482802331E-2,-2.566395700E-1
1.725042860E-1,7.948877662E-2,7.460185885E-2,-2.560287118E-1
1.749153270E-1,7.765618712E-2,8.498656005E-2,-2.541961074E-1
1.773263170E-1,7.582359016E-2,9.353867173E-2,-2.505309284E-1
1.797373590E-1,7.399099320E-2,1.027016416E-1,-2.480874658E-1
1.821483480E-1,7.032580674E-2,1.112537459E-1,-2.432005405E-1
1.845593900E-1,6.604975462E-2,1.191949919E-1,-2.419788092E-1
1.869704320E-1,5.994110554E-2,1.271362305E-1,-2.395353466E-1
1.893814210E-1,5.505418777E-2,1.332448870E-1,-2.346484363E-1
1.917924630E-1,4.955640435E-2,1.399643868E-1,-2.328158319E-1
1.942034520E-1,4.283689335E-2,1.436295807E-1,-2.303723842E-1
1.966144940E-1,3.794997558E-2,1.479056329E-1,-2.279289216E-1
1.990254840E-1,3.245219216E-2,1.497382224E-1,-2.254854590E-1
2.014365250E-1,2.573267929E-2,1.509599537E-1,-2.218202800E-1
2.038475670E-1,1.962403022E-2,1.509599537E-1,-2.181550860E-1
2.062585570E-1,1.412624773E-2,1.491273642E-1,-2.151007652E-1
2.086695980E-1,8.017600514E-3,1.454621702E-1,-2.071595192E-1
2.110805880E-1,3.741546767E-3,1.436295807E-1,-2.016617358E-1
2.134916300E-1,-1.756236190E-3,1.375209391E-1,-1.973856837E-1
2.159026710E-1,-6.643154658E-3,1.314122826E-1,-1.900553107E-1
2.183136610E-1,-1.153007243E-2,1.234710440E-1,-1.821140647E-1
2.207247020E-1,-1.519526169E-2,1.161406636E-1,-1.760054082E-1
2.231356920E-1,-2.252563834E-2,1.045342386E-1,-1.668424457E-1
2.255467340E-1,-2.680169232E-2,9.292780608E-2,-1.576794684E-1
2.279577230E-1,-3.107774630E-2,7.887791097E-2,-1.472947747E-1
2.303687650E-1,-3.535379842E-2,6.360629201E-2,-1.344666034E-1
2.327798070E-1,-3.718639165E-2,4.833467677E-2,-1.234710440E-1
2.351907960E-1,-3.779725730E-2,3.184132650E-2,-1.094211563E-1
2.376018380E-1,-3.657552972E-2,1.412624773E-2,-9.598212689E-2
2.400128270E-1,-3.718639165E-2,-3.588830587E-3,-8.315397054E-2
2.424238690E-1,-3.657552972E-2,-2.130390890E-2,-7.093667239E-2
2.448348590E-1,-3.291033953E-2,-4.024071619E-2,-5.994110554E-2
2.472459000E-1,-2.985601686E-2,-5.917752534E-2,-4.833467677E-2
2.496569420E-1,-2.191477455E-2,-7.506000996E-2,-3.733910993E-2
2.520679320E-1,-2.069304511E-2,-9.644027799E-2,-2.573267929E-2
2.544789730E-1,-1.458439697E-2,-1.123227626E-1,-1.351538301E-2
2.568899630E-1,-6.643154658E-3,-1.275943816E-1,-1.908952487E-3
2.593010050E-1,1.908952487E-3,-1.398116797E-1,1.030834299E-2
2.617119940E-1,9.239329956E-3,-1.514181048E-1,2.313650399E-2
2.641230360E-1,1.656970754E-2,-1.630245447E-1,3.779725730E-2
2.665340770E-1,2.328922041E-2,-1.697440445E-1,5.062541738E-2
2.689450670E-1,3.123046272E-2,-1.746309698E-1,6.223184988E-2
2.713561090E-1,3.978256881E-2,-1.764635593E-1,7.506000996E-2
2.737670980E-1,4.528035223E-2,-1.734092385E-1,8.605557680E-2
2.761781400E-1,5.199986324E-2,-1.685223281E-1,9.766200930E-2
2.785891820E-1,5.871937796E-2,-1.593593508E-1,1.080467105E-1
2.810001710E-1,6.299543381E-2,-1.489746422E-1,1.184314117E-1
2.834112130E-1,6.727148592E-2,-1.337030232E-1,1.257617921E-1
2.858222020E-1,7.154753804E-2,-1.153770834E-1,1.337030232E-1
2.882332440E-1,7.521272451E-2,-9.521854669E-2,1.428660005E-1
2.906442340E-1,7.765618712E-2,-7.506000996E-2,1.495855153E-1
2.930552750E-1,8.071050793E-2,-5.123628303E-2,1.581376195E-1
2.954663170E-1,8.315397054E-2,-2.741255611E-2,1.648571342E-1
2.978773070E-1,8.498656005E-2,-5.345066893E-4,1.715766490E-1
3.002883480E-1,8.681915700E-2,2.512181364E-2,1.776852906E-1
3.026993380E-1,8.804088831E-2,5.077813566E-2,1.819613427E-1
3.051103800E-1,8.559742570E-2,7.582359016E-2,1.868482679E-1
3.075214210E-1,8.498656005E-2,1.014799103E-1,1.911243200E-1
3.099324110E-1,8.071050793E-2,1.265253723E-1,1.941786408E-1
3.123434520E-1,7.643445581E-2,1.491273642E-1,1.966221035E-1
3.147544420E-1,6.910407543E-2,1.711184978E-1,1.966221035E-1
3.171654840E-1,6.482802331E-2,1.918879002E-1,1.990655661E-1
3.195764730E-1,5.871937796E-2,2.108247131E-1,2.015090138E-1
3.219875150E-1,5.199986324E-2,2.267071903E-1,2.039524764E-1
3.243985570E-1,4.650207981E-2,2.395353466E-1,2.057850659E-1
3.268095460E-1,3.978256881E-2,2.499200553E-1,2.070067972E-1
3.292205880E-1,3.367391974E-2,2.584721744E-1,2.082285285E-1
3.316315770E-1,2.817613818E-2,2.615264952E-1,2.082285285E-1
3.340426190E-1,1.962403022E-2,2.615264952E-1,2.076176703E-1
3.364536090E-1,1.412624773E-2,2.578612864E-1,2.070067972E-1
3.388646500E-1,9.239329956E-3,2.523635030E-1,2.045633495E-1
3.412756920E-1,5.574141163E-3,2.432005405E-1,2.021198869E-1
3.436866820E-1,1.298087649E-3,2.328158319E-1,1.984546930E-1
3.460977230E-1,6.872228696E-4,2.193768173E-1,1.947895139E-1
3.485087130E-1,6.872228696E-4,2.041051984E-1,1.905134469E-1
3.509197550E-1,2.519817324E-3,1.863901168E-1,1.844048053E-1
3.533307440E-1,5.574141163E-3,1.686750352E-1,1.795178801E-1
3.557417860E-1,1.046105940E-2,1.491273642E-1,1.740200967E-1
3.581528270E-1,1.412624773E-2,1.308014244E-1,1.660788655E-1
3.605638170E-1,1.718057133E-2,1.100320220E-1,1.563050300E-1
3.629748590E-1,1.901316643E-2,9.109520912E-2,1.465311944E-1
3.653858480E-1,2.206749097E-2,7.093667239E-2,1.367573589E-1
3.677968900E-1,2.390008420E-2,5.566505343E-2,1.275943816E-1
3.702079320E-1,2.512181364E-2,3.672824427E-2,1.190422773E-1
3.726189210E-1,2.634354308E-2,1.962403022E-2,1.117118970E-1
3.750299630E-1,2.939786762E-2,4.963276442E-3,1.037706509E-1
3.774409520E-1,3.184132650E-2,-8.475748822E-3,9.582941234E-2
3.798519940E-1,3.245219216E-2,-2.069304511E-2,8.727730811E-2
3.822629840E-1,3.306305781E-2,-3.474293277E-2,8.116865903E-2
3.846740250E-1,3.184132650E-2,-4.451677203E-2,7.383827865E-2
3.870850670E-1,3.061959706E-2,-5.306887627E-2,6.650790572E-2
3.894960570E-1,2.817613818E-2,-6.039925665E-2,6.039925665E-2
3.919070980E-1,2.634354308E-2,-6.589704007E-2,5.551233515E-2
3.943180880E-1,2.145662531E-2,-7.078395784E-2,4.818195850E-2
3.967291300E-1,1.962403022E-2,-7.383827865E-2,4.268417507E-2
3.991401710E-1,1.595884189E-2,-7.261654735E-2,3.840812296E-2
4.015511610E-1,9.850194678E-3,-7.444914430E-2,3.474293277E-2
4.039622020E-1,3.130682046E-3,-7.261654735E-2,3.168861195E-2
4.063731920E-1,-3.588830587E-3,-6.956222653E-2,2.924515121E-2
4.087842340E-1,-9.086613543E-3,-6.650790572E-2,2.680169232E-2
4.111952230E-1,-1.641699113E-2,-6.345357746E-2,2.619082667E-2
4.136062650E-1,-2.252563834E-2,-5.917752534E-2,2.313650399E-2
4.160173070E-1,-2.924515121E-2,-5.367974192E-2,2.191477455E-2
4.184282960E-1,-3.535379842E-2,-4.573849961E-2,1.886045001E-2
4.208393380E-1,-4.024071619E-2,-3.901898861E-2,1.458439697E-2
4.232503270E-1,-4.696023092E-2,-2.863428742E-2,1.153007243E-2
4.256613690E-1,-5.367974192E-2,-2.008217946E-2,5.421424750E-3
4.280724110E-1,-6.101011857E-2,-1.030834299E-2,3.588830587E-3
4.304834000E-1,-6.834049523E-2,-1.756236190E-3,-6.872228696E-4
4.328944420E-1,-7.567087561E-2,9.239329956E-3,-1.908952487E-3
4.353054320E-1,-8.361211419E-2,1.840230078E-2,-5.574141163E-3
4.377164730E-1,-8.727730811E-2,2.878700197E-2,-6.795870606E-3
4.401274630E-1,-9.216422588E-2,3.733910993E-2,-8.017600514E-3
4.425385050E-1,-9.644027799E-2,4.711294547E-2,-7.406735327E-3
4.449495460E-1,-1.001054645E-1,5.627591908E-2,-9.850194678E-3
4.473605360E-1,-1.049923822E-1,6.360629201E-2,-1.107192412E-2
4.497715770E-1,-1.080467105E-1,6.910407543E-2,-1.107192412E-2
4.521825670E-1,-1.086575761E-1,7.582359016E-2,-1.107192412E-2
4.545936090E-1,-1.092684343E-1,8.071050793E-2,-1.351538301E-2
4.570045980E-1,-1.092684343E-1,8.437569439E-2,-1.412624773E-2
4.594156400E-1,-1.074358448E-1,8.681915700E-2,-1.351538301E-2
4.618266820E-1,-1.031597927E-1,9.048434347E-2,-1.412624773E-2
4.642376710E-1,-1.013271958E-1,9.170607477E-2,-1.351538301E-2
4.666487130E-1,-9.644027799E-2,9.353867173E-2,-1.290451828E-2
4.690597020E-1,-9.216422588E-2,9.231694043E-2,-1.168278884E-2
4.714707440E-1,-8.422297984E-2,9.109520912E-2,-1.046105940E-2
4.738817340E-1,-7.811433077E-2,8.987347782E-2,-1.046105940E-2
4.762927750E-1,-7.200568914E-2,8.804088831E-2,-7.406735327E-3
4.787038170E-1,-6.650790572E-2,8.437569439E-2,-4.963276442E-3
4.811148070E-1,-5.978839099E-2,8.193223923E-2,-3.130682046E-3
4.835258480E-1,-5.123628303E-2,8.071050793E-2,-6.872228696E-4
4.859368380E-1,-4.634936526E-2,7.887791097E-2,1.756236190E-3
4.883478800E-1,-4.024071619E-2,7.765618712E-2,6.032289471E-3
4.907589210E-1,-3.413207084E-2,7.643445581E-2,1.030834299E-2
4.931699110E-1,-2.863428742E-2,7.643445581E-2,1.275180187E-2
4.955809520E-1,-2.435823344E-2,7.704532146E-2,1.702785492E-2
4.979919420E-1,-1.947131567E-2,8.009964228E-2,2.252563834E-2
5.004029840E-1,-1.824958436E-2,8.071050793E-2,2.802342176E-2
5.028139730E-1,-1.702785492E-2,8.193223923E-2,3.413207084E-2
5.052250150E-1,-1.214093715E-2,8.315397054E-2,3.901898861E-2
5.076360570E-1,-1.153007243E-2,8.132137358E-2,4.268417507E-2
5.100470460E-1,-9.086613543E-3,8.315397054E-2,4.757109284E-2
5.124580880E-1,-6.643154658E-3,8.254310489E-2,5.062541738E-2
5.148690770E-1,-3.588830587E-3,8.132137358E-2,5.551233515E-2
5.172801190E-1,-5.345066893E-4,8.071050793E-2,6.039925665E-2
5.196911610E-1,3.130682046E-3,7.948877662E-2,6.467530876E-2
5.221021500E-1,5.574141163E-3,7.643445581E-2,6.834049523E-2
5.245131920E-1,8.628465235E-3,7.521272451E-2,7.078395784E-2
5.269241820E-1,1.046105940E-2,7.276926935E-2,7.506000996E-2
5.293352230E-1,1.107192412E-2,7.032580674E-2,7.689260691E-2
5.317462130E-1,9.850194678E-3,6.482802331E-2,7.872519642E-2
5.341572550E-1,1.168278884E-2,6.177370250E-2,8.116865903E-2
5.365682960E-1,1.107192412E-2,5.688678101E-2,8.422297984E-2
5.389792860E-1,1.290451828E-2,5.199986324E-2,8.605557680E-2
5.413903270E-1,1.473711245E-2,4.894553870E-2,8.849903196E-2
5.438013170E-1,1.656970754E-2,4.283689335E-2,9.094249457E-2
5.462123590E-1,1.718057133E-2,3.611737862E-2,9.277509153E-2
5.486233480E-1,1.962403022E-2,2.939786762E-2,9.521854669E-2
5.510343900E-1,2.206749097E-2,2.328922041E-2,1.001054645E-1
5.534454320E-1,2.390008420E-2,1.779143699E-2,1.037706509E-1
5.558564210E-1,2.756527252E-2,1.351538301E-2,1.080467105E-1
5.582674630E-1,3.061959706E-2,7.406735327E-3,1.111010313E-1
5.606784520E-1,3.184132650E-2,3.130682046E-3,1.135444939E-1
5.630894940E-1,3.306305781E-2,-5.345066893E-4,1.159879491E-1
5.655005360E-1,3.489565104E-2,-2.977965865E-3,1.184314117E-1
5.679115250E-1,3.489565104E-2,-5.421424750E-3,1.184314117E-1
5.703225670E-1,3.550651670E-2,-6.032289471E-3,1.190422773E-1
5.727335570E-1,3.794997558E-2,-5.421424750E-3,1.196531355E-1
5.751445980E-1,3.794997558E-2,-6.032289471E-3,1.202640012E-1
5.775555880E-1,3.978256881E-2,-6.032289471E-3,1.196531355E-1
5.799666300E-1,4.039343446E-2,-4.199695308E-3,1.196531355E-1
5.823776190E-1,3.978256881E-2,-2.977965865E-3,1.202640012E-1
5.847886610E-1,3.978256881E-2,-2.367100911E-3,1.196531355E-1
5.871997020E-1,4.039343446E-2,1.908952487E-3,1.190422773E-1
5.896106920E-1,4.039343446E-2,6.185005885E-3,1.178205460E-1
5.920217340E-1,4.100430012E-2,9.850194678E-3,1.165988147E-1
5.944327230E-1,3.917170316E-2,1.290451828E-2,1.159879491E-1
5.968437650E-1,3.978256881E-2,1.595884189E-2,1.141553521E-1
5.992548070E-1,3.978256881E-2,1.962403022E-2,1.129336283E-1
6.016657960E-1,4.100430012E-2,2.451094985E-2,1.111010313E-1
6.040768380E-1,4.100430012E-2,2.756527252E-2,1.080467105E-1
6.064878270E-1,4.222602770E-2,3.123046272E-2,1.049923822E-1
6.088988690E-1,4.283689335E-2,3.367391974E-2,1.007163301E-1
6.113099110E-1,4.711294547E-2,3.733910993E-2,9.949459881E-2
6.137209000E-1,4.894553870E-2,3.856083751E-2,9.644027799E-2
6.161319420E-1,5.261072889E-2,3.917170316E-2,9.216422588E-2
6.185429320E-1,5.627591908E-2,3.978256881E-2,8.910989761E-2
6.209539730E-1,5.749764666E-2,3.917170316E-2,8.544471115E-2
6.233649630E-1,5.933023989E-2,3.794997558E-2,8.239039034E-2
6.257760050E-1,6.238456443E-2,3.611737862E-2,7.872519642E-2
6.281870460E-1,6.666062027E-2,3.489565104E-2,7.506000996E-2
6.305980360E-1,6.971494108E-2,3.245219216E-2,7.139482349E-2
6.330090770E-1,7.215840369E-2,3.123046272E-2,6.772962958E-2
6.354200670E-1,7.338013500E-2,2.817613818E-2,6.406444311E-2
6.378311090E-1,7.338013500E-2,2.451094985E-2,6.101011857E-2
6.402421500E-1,7.154753804E-2,2.084576152E-2,5.856665969E-2
6.426531400E-1,6.971494108E-2,1.779143699E-2,5.734493211E-2
6.450641820E-1,6.849320978E-2,1.412624773E-2,5.551233515E-2
6.474751710E-1,6.788235158E-2,1.046105940E-2,5.612320080E-2
6.498862130E-1,6.543888897E-2,8.017600514E-3,5.795579776E-2
6.522972020E-1,6.360629201E-2,4.963276442E-3,6.039925665E-2
6.547082440E-1,5.994110554E-2,1.298087649E-3,6.406444311E-2
6.571192860E-1,5.322159454E-2,-1.756236190E-3,6.772962958E-2
6.595302750E-1,4.528035223E-2,-4.199695308E-3,6.956222653E-2
6.619413170E-1,3.611737862E-2,-5.421424750E-3,7.322741300E-2
6.643523070E-1,2.634354308E-2,-7.254019380E-3,7.628174126E-2
6.667633480E-1,1.534797717E-2,-6.032289471E-3,7.811433077E-2
6.691743380E-1,3.741546767E-3,-4.810560029E-3,8.116865903E-2
6.715853800E-1,-8.475748822E-3,-4.199695308E-3,8.422297984E-2
6.739964210E-1,-2.191477455E-2,-2.367100911E-3,8.605557680E-2
6.764074110E-1,-3.596466407E-2,-5.345066893E-4,8.544471115E-2
6.788184520E-1,-4.879282415E-2,6.872228696E-4,8.422297984E-2
6.812294420E-1,-6.223184988E-2,7.635809743E-5,8.239039034E-2
6.836404840E-1,-7.322741300E-2,-5.345066893E-4,7.933606207E-2
6.860514730E-1,-8.300124854E-2,-2.367100911E-3,7.322741300E-2
6.884625150E-1,-8.972076327E-2,-6.032289471E-3,6.711876392E-2
6.908735570E-1,-9.888373315E-2,-1.091920771E-2,5.978839099E-2
6.932845460E-1,-1.062141135E-1,-1.519526169E-2,5.123628303E-2
6.956955880E-1,-1.165988147E-1,-2.069304511E-2,4.207331315E-2
6.981065770E-1,-1.275943816E-1,-2.741255611E-2,3.291033953E-2
7.005176190E-1,-1.330921650E-1,-3.535379842E-2,2.374736778E-2
7.029286610E-1,-1.404225379E-1,-4.268417507E-2,1.763872057E-2
7.053396500E-1,-1.446985900E-1,-5.123628303E-2,1.030834299E-2
7.077506920E-1,-1.483637840E-1,-6.284271181E-2,4.810560029E-3
7.101616820E-1,-1.514181048E-1,-7.261654735E-2,5.345066893E-4
7.125727230E-1,-1.538615674E-1,-8.361211419E-2,-4.352411721E-3
7.149837650E-1,-1.538615674E-1,-9.338594973E-2,-1.046105940E-2
7.173947550E-1,-1.532506943E-1,-1.043815166E-1,-1.595884189E-2
7.198057960E-1,-1.520289779E-1,-1.117118970E-1,-2.084576152E-2
7.222167860E-1,-1.501963735E-1,-1.220965981E-1,-2.634354308E-2
7.246278270E-1,-1.465311944E-1,-1.300378442E-1,-3.245219216E-2
7.270388170E-1,-1.404225379E-1,-1.355356276E-1,-3.733910993E-2
7.294498590E-1,-1.343138963E-1,-1.410334110E-1,-4.283689335E-2
7.318608480E-1,-1.269835234E-1,-1.434768587E-1,-4.833467677E-2
7.342718900E-1,-1.184314117E-1,-1.477529258E-1,-5.505418777E-2
7.366829320E-1,-1.092684343E-1,-1.477529258E-1,-5.871937796E-2
7.390939210E-1,-1.001054645E-1,-1.459203213E-1,-6.421715766E-2
7.415049630E-1,-9.277509153E-2,-1.422551423E-1,-7.032580674E-2
7.439159520E-1,-8.361211419E-2,-1.385899484E-1,-7.521272451E-2
7.463269940E-1,-7.261654735E-2,-1.306487024E-1,-7.887791097E-2
7.487380360E-1,-6.345357746E-2,-1.208748668E-1,-8.193223923E-2
7.511490250E-1,-5.429060757E-2,-1.104901657E-1,-8.498656005E-2
7.535600670E-1,-4.573849961E-2,-9.888373315E-2,-8.804088831E-2
7.559710570E-1,-3.474293277E-2,-8.361211419E-2,-9.109520912E-2
7.583820980E-1,-2.680169232E-2,-6.772962958E-2,-9.292780608E-2
7.607930880E-1,-1.886045001E-2,-5.001455545E-2,-9.659299254E-2
7.632041300E-1,-1.030834299E-2,-3.168861195E-2,-1.002581790E-1
7.656151710E-1,-2.977965865E-3,-1.214093715E-2,-1.014799103E-1
7.680261610E-1,3.741546767E-3,7.406735327E-3,-1.039233729E-1
7.704372020E-1,1.046105940E-2,2.695440874E-2,-1.069776937E-1
7.728481920E-1,1.595884189E-2,4.711294547E-2,-1.112537459E-1
7.752592340E-1,2.390008420E-2,6.604975462E-2,-1.136972085E-1
7.776702750E-1,3.061959706E-2,8.498656005E-2,-1.179732606E-1
7.800812650E-1,3.611737862E-2,1.051450968E-1,-1.210275814E-1
7.824923070E-1,4.405862093E-2,1.234710440E-1,-1.253036410E-1
7.849032960E-1,4.833467677E-2,1.375209391E-1,-1.308014244E-1
7.873143380E-1,5.383246019E-2,1.534034163E-1,-1.350774765E-1
7.897253270E-1,6.055197120E-2,1.650098413E-1,-1.387426704E-1
7.921363690E-1,6.421715766E-2,1.753945500E-1,-1.399643868E-1
7.945474110E-1,6.666062027E-2,1.827249229E-1,-1.424078494E-1
7.969584000E-1,6.849320978E-2,1.894444376E-1,-1.430187225E-1
7.993694420E-1,7.093667239E-2,1.931096315E-1,-1.430187225E-1
8.017804320E-1,7.093667239E-2,1.931096315E-1,-1.417969912E-1
8.041914730E-1,7.154753804E-2,1.918879002E-1,-1.393535286E-1
8.066025150E-1,6.910407543E-2,1.900553107E-1,-1.375209391E-1
8.090135050E-1,6.727148592E-2,1.857792437E-1,-1.350774765E-1
8.114245460E-1,6.482802331E-2,1.790597439E-1,-1.301905513E-1
8.138355360E-1,5.933023989E-2,1.717293561E-1,-1.259144992E-1
8.162465770E-1,5.566505343E-2,1.631772518E-1,-1.204167232E-1
8.186575670E-1,4.894553870E-2,1.540142894E-1,-1.149189398E-1
8.210686090E-1,4.528035223E-2,1.442404389E-1,-1.088102907E-1
8.234795980E-1,3.856083751E-2,1.350774765E-1,-1.014799103E-1
8.258906400E-1,3.061959706E-2,1.222493127E-1,-9.414953738E-2
8.283016820E-1,2.634354308E-2,1.112537459E-1,-8.804088831E-2
8.307126710E-1,1.962403022E-2,9.781472385E-2,-8.376483619E-2
8.331237130E-1,1.534797717E-2,8.559742570E-2,-7.887791097E-2
8.355347020E-1,8.628465235E-3,7.215840369E-2,-7.460185885E-2
8.379457440E-1,4.963276442E-3,6.055197120E-2,-7.093667239E-2
8.403567860E-1,3.130682046E-3,4.833467677E-2,-6.543888897E-2
8.427677750E-1,-1.145371469E-3,3.733910993E-2,-6.116283685E-2
8.451788170E-1,-7.254019380E-3,2.512181364E-2,-5.627591908E-2
8.475898070E-1,-8.475748822E-3,1.656970754E-2,-5.322159454E-2
8.500008480E-1,-1.214093715E-2,7.406735327E-3,-4.955640435E-2
8.524118900E-1,-1.519526169E-2,-1.145371469E-3,-4.589121789E-2
8.548228800E-1,-1.763872057E-2,-8.475748822E-3,-4.405862093E-2
8.572339210E-1,-2.069304511E-2,-1.458439697E-2,-4.039343446E-2
8.596449110E-1,-2.252563834E-2,-2.008217946E-2,-3.733910993E-2
8.620559520E-1,-2.496909723E-2,-2.557996288E-2,-3.367391974E-2
8.644669420E-1,-2.680169232E-2,-2.741255611E-2,-3.245219216E-2
8.668779840E-1,-2.863428742E-2,-3.229947388E-2,-3.000873141E-2
8.692890250E-1,-3.107774630E-2,-3.474293277E-2,-2.756527252E-2
8.717000150E-1,-3.291033953E-2,-3.901898861E-2,-2.328922041E-2
8.741110570E-1,-3.352120519E-2,-4.024071619E-2,-1.840230078E-2
8.765220460E-1,-3.291033953E-2,-4.207331315E-2,-1.656970754E-2
8.789330880E-1,-3.596466407E-2,-4.573849961E-2,-1.229365356E-2
8.813440770E-1,-3.413207084E-2,-4.512763396E-2,-1.046105940E-2
8.837551190E-1,-3.352120519E-2,-4.634936526E-2,-8.628465235E-3
8.861661610E-1,-3.168861195E-2,-4.634936526E-2,-6.795870606E-3
8.885771500E-1,-3.168861195E-2,-4.696023092E-2,-5.574141163E-3
8.909881920E-1,-2.985601686E-2,-4.573849961E-2,-4.352411721E-3
8.933991820E-1,-2.863428742E-2,-4.512763396E-2,-2.519817324E-3
8.958102230E-1,-2.802342176E-2,-4.451677203E-2,-1.298087649E-3
8.982212650E-1,-2.557996288E-2,-4.268417507E-2,-6.872228696E-4
9.006322550E-1,-2.619082667E-2,-4.024071619E-2,-7.635809743E-5
9.030432960E-1,-2.557996288E-2,-3.901898861E-2,1.145371469E-3
9.054542860E-1,-2.435823344E-2,-3.840812296E-2,4.199695308E-3
9.078653270E-1,-2.313650399E-2,-3.718639165E-2,6.032289471E-3
9.102763170E-1,-2.191477455E-2,-3.657552972E-2,1.030834299E-2
9.126873590E-1,-2.313650399E-2,-3.657552972E-2,1.458439697E-2
9.150984000E-1,-2.252563834E-2,-3.535379842E-2,1.947131567E-2
9.175093900E-1,-2.435823344E-2,-3.596466407E-2,2.435823344E-2
9.199204320E-1,-2.680169232E-2,-3.413207084E-2,2.863428742E-2
9.223314210E-1,-2.924515121E-2,-3.352120519E-2,3.474293277E-2
9.247424630E-1,-3.107774630E-2,-3.168861195E-2,3.901898861E-2
9.271534520E-1,-3.596466407E-2,-3.046688065E-2,4.390590638E-2
9.295644940E-1,-3.901898861E-2,-2.863428742E-2,4.818195850E-2
9.319755360E-1,-4.268417507E-2,-2.741255611E-2,5.306887627E-2
9.343865250E-1,-4.757109284E-2,-2.313650399E-2,5.734493211E-2
9.367975670E-1,-5.123628303E-2,-2.130390890E-2,6.284271181E-2
9.392085570E-1,-5.367974192E-2,-2.069304511E-2,6.772962958E-2
9.416195980E-1,-5.734493211E-2,-1.824958436E-2,7.261654735E-2
9.440305880E-1,-6.101011857E-2,-1.336266659E-2,7.628174126E-2
9.464416300E-1,-6.345357746E-2,-1.275180187E-2,7.872519642E-2
9.488526710E-1,-6.528617442E-2,-9.697478265E-3,8.177952468E-2
9.512636610E-1,-6.650790572E-2,-7.864884101E-3,8.483384550E-2
9.536747020E-1,-6.772962958E-2,-7.864884101E-3,8.666644245E-2
9.560856920E-1,-6.834049523E-2,-5.421424750E-3,8.788817376E-2
9.584967340E-1,-6.772962958E-2,-3.588830587E-3,8.972076327E-2
9.609077230E-1,-6.650790572E-2,-1.756236190E-3,9.277509153E-2
9.633187650E-1,-6.467530876E-2,7.635809743E-5,9.277509153E-2
9.657298070E-1,-6.345357746E-2,2.519817324E-3,9.338594973E-2
9.681407960E-1,-6.162098423E-2,3.741546767E-3,9.338594973E-2
9.705518380E-1,-6.039925665E-2,4.963276442E-3,9.399681538E-2
9.729628270E-1,-5.734493211E-2,7.406735327E-3,9.338594973E-2
9.753738690E-1,-5.673406646E-2,9.850194678E-3,9.399681538E-2
9.777849110E-1,-5.490147322E-2,1.168278884E-2,9.277509153E-2
9.801959000E-1,-5.306887627E-2,1.290451828E-2,9.338594973E-2
9.826069420E-1,-5.001455545E-2,1.595884189E-2,9.216422588E-2
9.850179320E-1,-5.001455545E-2,1.656970754E-2,9.216422588E-2
9.874289730E-1,-4.696023092E-2,1.840230078E-2,9.155336022E-2
9.898400150E-1,-4.512763396E-2,1.962403022E-2,8.972076327E-2
9.922510050E-1,-4.268417507E-2,2.145662531E-2,8.910989761E-2
9.946620460E-1,-3.901898861E-2,2.206749097E-2,8.849903196E-2
9.970730360E-1,-3.718639165E-2,2.267835476E-2,8.483384550E-2
9.994840770E-1,-3.413207084E-2,2.451094985E-2,8.177952468E-2
1.001895067E0,-3.229947388E-2,2.390008420E-2,7.872519642E-2
1.004306109E0,-3.046688065E-2,2.267835476E-2,7.872519642E-2
1.006717150E0,-2.924515121E-2,2.023489587E-2,7.811433077E-2
1.009128140E0,-2.619082667E-2,1.901316643E-2,7.872519642E-2
1.011539182E0,-2.557996288E-2,1.656970754E-2,7.872519642E-2
1.013950171E0,-2.252563834E-2,1.412624773E-2,7.994692773E-2
1.016361213E0,-2.252563834E-2,1.046105940E-2,8.116865903E-2
1.018772202E0,-2.069304511E-2,6.185005885E-3,8.300124854E-2
1.021183244E0,-2.130390890E-2,1.298087649E-3,8.422297984E-2
1.023594286E0,-2.008217946E-2,-3.588830587E-3,8.788817376E-2
1.026005275E0,-2.008217946E-2,-8.475748822E-3,8.972076327E-2
1.028416317E0,-1.886045001E-2,-1.336266659E-2,9.094249457E-2
1.030827307E0,-2.008217946E-2,-1.886045001E-2,9.155336022E-2
1.033238348E0,-2.008217946E-2,-2.252563834E-2,9.094249457E-2
1.035649338E0,-2.130390890E-2,-2.680169232E-2,9.155336022E-2
1.038060380E0,-2.252563834E-2,-3.046688065E-2,9.094249457E-2
1.040471421E0,-2.496909723E-2,-3.474293277E-2,8.972076327E-2
1.042882411E0,-2.741255611E-2,-3.779725730E-2,8.788817376E-2
1.045293452E0,-2.741255611E-2,-4.024071619E-2,8.422297984E-2
1.047704442E0,-2.924515121E-2,-4.329504073E-2,8.116865903E-2
1.050115484E0,-2.924515121E-2,-4.390590638E-2,7.872519642E-2
1.052526525E0,-3.107774630E-2,-4.696023092E-2,7.506000996E-2
1.054937515E0,-3.046688065E-2,-4.696023092E-2,7.139482349E-2
1.057348557E0,-3.291033953E-2,-4.940368980E-2,6.895136088E-2
1.059759546E0,-3.413207084E-2,-5.062541738E-2,6.650790572E-2
1.062170588E0,-3.352120519E-2,-5.062541738E-2,6.406444311E-2
1.064581630E0,-3.352120519E-2,-5.123628303E-2,6.467530876E-2
1.066992619E0,-3.168861195E-2,-5.184714869E-2,6.406444311E-2
1.069403661E0,-2.985601686E-2,-5.123628303E-2,6.406444311E-2
1.071814650E0,-2.985601686E-2,-5.367974192E-2,6.528617442E-2
1.074225692E0,-2.680169232E-2,-5.245801434E-2,6.589704007E-2
1.076636682E0,-2.680169232E-2,-5.001455545E-2,6.589704007E-2
1.079047723E0,-2.680169232E-2,-4.818195850E-2,6.589704007E-2
1.081458713E0,-2.863428742E-2,-4.573849961E-2,6.650790572E-2
1.083869755E0,-3.046688065E-2,-4.329504073E-2,6.589704007E-2
1.086280796E0,-3.107774630E-2,-3.962985426E-2,6.467530876E-2
1.088691786E0,-3.107774630E-2,-3.229947388E-2,6.223184988E-2
1.091102827E0,-2.985601686E-2,-2.680169232E-2,5.978839099E-2
1.093513817E0,-2.924515121E-2,-2.008217946E-2,5.795579776E-2
1.095924859E0,-2.863428742E-2,-1.091920771E-2,5.367974192E-2
1.098335900E0,-2.985601686E-2,-1.145371469E-3,4.879282415E-2
1.100746890E0,-3.107774630E-2,9.850194678E-3,4.268417507E-2
1.103157932E0,-3.413207084E-2,1.901316643E-2,3.657552972E-2
1.105568921E0,-3.901898861E-2,3.061959706E-2,3.168861195E-2
1.107979963E0,-4.268417507E-2,4.161516204E-2,2.619082667E-2
1.110391005E0,-4.634936526E-2,5.199986324E-2,2.069304511E-2
1.112801994E0,-5.001455545E-2,6.238456443E-2,1.458439697E-2
1.115213036E0,-5.367974192E-2,7.338013500E-2,9.086613543E-3
1.117624025E0,-5.917752534E-2,8.193223923E-2,6.643154658E-3
1.120035067E0,-6.467530876E-2,8.987347782E-2,2.367100911E-3
1.122446057E0,-6.956222653E-2,9.659299254E-2,-6.872228696E-4
1.124857098E0,-7.444914430E-2,1.033125073E-1,-3.741546767E-3
1.127268140E0,-7.811433077E-2,1.081994250E-1,-6.795870606E-3
1.129679130E0,-8.239039034E-2,1.106428802E-1,-9.850194678E-3
1.132090171E0,-8.544471115E-2,1.136972085E-1,-1.168278884E-2
1.134501161E0,-8.788817376E-2,1.155297980E-1,-1.290451828E-2
1.136912202E0,-8.910989761E-2,1.161406636E-1,-1.595884189E-2
1.139323192E0,-9.277509153E-2,1.136972085E-1,-1.840230078E-2
1.141734234E0,-9.705114365E-2,1.106428802E-1,-2.023489587E-2
1.144145275E0,-1.001054645E-1,1.069776937E-1,-2.451094985E-2
1.146556265E0,-1.013271958E-1,1.027016416E-1,-2.817613818E-2
1.148967307E0,-1.049923822E-1,9.720385820E-2,-3.000873141E-2
1.151378296E0,-1.074358448E-1,8.926261961E-2,-3.000873141E-2
1.153789338E0,-1.086575761E-1,7.887791097E-2,-3.245219216E-2
1.156200380E0,-1.092684343E-1,6.971494108E-2,-3.428478539E-2
1.158611369E0,-1.086575761E-1,5.994110554E-2,-3.489565104E-2
1.161022411E0,-1.086575761E-1,4.833467677E-2,-3.733910993E-2
1.163433400E0,-1.080467105E-1,3.672824427E-2,-3.856083751E-2
1.165844442E0,-1.062141135E-1,2.634354308E-2,-4.161516204E-2
1.168255432E0,-1.049923822E-1,1.412624773E-2,-4.405862093E-2
1.170666473E0,-1.031597927E-1,2.519817324E-3,-4.833467677E-2
1.173077515E0,-1.007163301E-1,-7.864884101E-3,-5.077813566E-2
1.175488505E0,-1.007163301E-1,-1.947131567E-2,-5.322159454E-2
1.177899546E0,-9.766200930E-2,-2.863428742E-2,-5.505418777E-2
1.180310536E0,-9.277509153E-2,-3.718639165E-2,-5.749764666E-2
1.182721577E0,-8.849903196E-2,-4.696023092E-2,-5.871937796E-2
1.185132567E0,-8.422297984E-2,-5.734493211E-2,-6.116283685E-2
1.187543609E0,-7.872519642E-2,-6.406444311E-2,-6.177370250E-2
1.189954650E0,-7.200568914E-2,-7.078395784E-2,-6.299543381E-2
1.192365640E0,-6.589704007E-2,-7.628174126E-2,-6.482802331E-2
1.194776682E0,-6.101011857E-2,-8.177952468E-2,-6.604975462E-2
1.197187671E0,-5.245801434E-2,-8.422297984E-2,-6.788235158E-2
1.199598713E0,-4.512763396E-2,-8.788817376E-2,-6.849320978E-2
1.202009755E0,-3.840812296E-2,-8.788817376E-2,-7.154753804E-2
1.204420744E0,-3.291033953E-2,-8.849903196E-2,-7.338013500E-2
1.206831786E0,-2.619082667E-2,-8.666644245E-2,-7.643445581E-2
1.209242775E0,-2.191477455E-2,-8.300124854E-2,-7.826705277E-2
1.211653817E0,-1.519526169E-2,-7.811433077E-2,-7.948877662E-2
1.214064807E0,-8.475748822E-3,-7.200568914E-2,-8.071050793E-2
1.216475848E0,-3.588830587E-3,-6.467530876E-2,-8.132137358E-2
1.218886890E0,1.908952487E-3,-5.490147322E-2,-8.376483619E-2
1.221297880E0,4.963276442E-3,-4.451677203E-2,-8.620829135E-2
1.223708921E0,8.017600514E-3,-3.474293277E-2,-8.865175396E-2
1.226119911E0,1.351538301E-2,-2.130390890E-2,-9.170607477E-2
1.228530952E0,1.534797717E-2,-7.864884101E-3,-9.414953738E-2
1.230941942E0,1.840230078E-2,4.963276442E-3,-9.720385820E-2
1.233352984E0,1.962403022E-2,1.779143699E-2,-1.014799103E-1
1.235764025E0,2.145662531E-2,3.184132650E-2,-1.045342386E-1
1.238175015E0,2.267835476E-2,4.528035223E-2,-1.063668281E-1
1.240586057E0,2.512181364E-2,5.749764666E-2,-1.112537459E-1
1.242997046E0,2.512181364E-2,6.971494108E-2,-1.149189398E-1
1.245408088E0,2.634354308E-2,8.132137358E-2,-1.191949919E-1
1.247819130E0,2.695440874E-2,9.109520912E-2,-1.222493127E-1
1.250230119E0,2.756527252E-2,1.020907760E-1,-1.259144992E-1
1.252641161E0,2.695440874E-2,1.100320220E-1,-1.283579618E-1
1.255052150E0,2.817613818E-2,1.167515293E-1,-1.332448870E-1
1.257463192E0,2.695440874E-2,1.210275814E-1,-1.356883347E-1
1.259874182E0,2.756527252E-2,1.246927753E-1,-1.387426704E-1
1.262285223E0,2.695440874E-2,1.289688200E-1,-1.417969912E-1
1.264696265E0,2.756527252E-2,1.301905513E-1,-1.436295807E-1
1.267107255E0,2.634354308E-2,1.295796931E-1,-1.448513120E-1
1.269518296E0,2.756527252E-2,1.301905513E-1,-1.460730433E-1
1.271929286E0,3.061959706E-2,1.277471036E-1,-1.448513120E-1
1.274340327E0,3.184132650E-2,1.246927753E-1,-1.466839015E-1
1.276751369E0,3.428478539E-2,1.228601784E-1,-1.479056329E-1
1.279162359E0,3.672824427E-2,1.216384470E-1,-1.472947747E-1
1.281573400E0,3.794997558E-2,1.185841262E-1,-1.479056329E-1
1.283984390E0,3.978256881E-2,1.149189398E-1,-1.491273642E-1
1.286395432E0,4.161516204E-2,1.112537459E-1,-1.497382224E-1
1.288806421E0,4.161516204E-2,1.094211563E-1,-1.497382224E-1
1.291217463E0,4.405862093E-2,1.081994250E-1,-1.503490955E-1
1.293628505E0,4.528035223E-2,1.057559624E-1,-1.515708268E-1
1.296039494E0,4.894553870E-2,1.045342386E-1,-1.515708268E-1
1.298450536E0,4.955640435E-2,1.027016416E-1,-1.521816850E-1
1.300861525E0,5.077813566E-2,1.027016416E-1,-1.509599537E-1
1.303272567E0,5.077813566E-2,1.014799103E-1,-1.509599537E-1
1.305683609E0,5.138900131E-2,1.008690447E-1,-1.497382224E-1
1.308094598E0,5.077813566E-2,9.964732081E-2,-1.479056329E-1
1.310505640E0,5.016727000E-2,9.964732081E-2,-1.460730433E-1
1.312916630E0,4.772381112E-2,9.781472385E-2,-1.430187225E-1
1.315327671E0,4.589121789E-2,9.659299254E-2,-1.405752599E-1
1.317738661E0,4.528035223E-2,9.170607477E-2,-1.369100660E-1
1.320149702E0,4.528035223E-2,8.926261961E-2,-1.326340139E-1
1.322560692E0,4.405862093E-2,8.437569439E-2,-1.277471036E-1
1.324971734E0,4.344775900E-2,7.887791097E-2,-1.240819097E-1
1.327382775E0,4.283689335E-2,7.215840369E-2,-1.210275814E-1
1.329793765E0,4.039343446E-2,6.543888897E-2,-1.173623949E-1
1.332204807E0,3.856083751E-2,5.871937796E-2,-1.136972085E-1
1.334615796E0,3.611737862E-2,4.955640435E-2,-1.106428802E-1
1.337026838E0,3.489565104E-2,4.222602770E-2,-1.057559624E-1
1.339437880E0,3.245219216E-2,3.245219216E-2,-1.039233729E-1
1.341848869E0,3.306305781E-2,2.390008420E-2,-1.020907760E-1
1.344259911E0,3.306305781E-2,1.534797717E-2,-9.903645515E-2
1.346670900E0,3.061959706E-2,5.574141163E-3,-9.598212689E-2
1.349081942E0,2.939786762E-2,-4.810560029E-3,-9.414953738E-2
1.351492932E0,2.695440874E-2,-1.458439697E-2,-9.231694043E-2
1.353903973E0,2.695440874E-2,-2.313650399E-2,-8.987347782E-2
1.356315015E0,2.512181364E-2,-3.474293277E-2,-8.804088831E-2
1.358726005E0,2.451094985E-2,-4.329504073E-2,-8.620829135E-2
1.361137046E0,2.206749097E-2,-5.306887627E-2,-8.254310489E-2
1.363548036E0,2.023489587E-2,-6.101011857E-2,-8.009964228E-2
1.365959077E0,1.718057133E-2,-6.772962958E-2,-7.765618712E-2
1.368370119E0,1.534797717E-2,-7.567087561E-2,-7.582359016E-2
1.370781109E0,1.229365356E-2,-8.361211419E-2,-7.338013500E-2
1.373192150E0,8.628465235E-3,-8.910989761E-2,-6.971494108E-2
1.375603140E0,4.963276442E-3,-9.460768104E-2,-6.604975462E-2
1.378014182E0,7.635809743E-5,-9.888373315E-2,-6.360629201E-2
1.380425171E0,-4.199695308E-3,-1.025489271E-1,-5.994110554E-2
1.382836213E0,-9.086613543E-3,-1.049923822E-1,-5.627591908E-2
1.385247255E0,-1.641699113E-2,-1.074358448E-1,-5.505418777E-2
1.387658244E0,-2.069304511E-2,-1.080467105E-1,-5.199986324E-2
1.390069286E0,-2.496909723E-2,-1.086575761E-1,-5.016727000E-2
1.392480275E0,-2.863428742E-2,-1.080467105E-1,-4.833467677E-2
1.394891317E0,-3.535379842E-2,-1.080467105E-1,-4.711294547E-2
1.397302307E0,-4.146244749E-2,-1.043815166E-1,-4.405862093E-2
1.399713348E0,-4.818195850E-2,-1.037706509E-1,-4.222602770E-2
1.402124390E0,-5.551233515E-2,-1.007163301E-1,-4.039343446E-2
1.404535380E0,-6.101011857E-2,-9.766200930E-2,-3.856083751E-2
1.406946421E0,-6.650790572E-2,-9.277509153E-2,-3.550651670E-2
1.409357411E0,-7.261654735E-2,-8.972076327E-2,-3.184132650E-2
1.411768452E0,-7.811433077E-2,-8.727730811E-2,-2.878700197E-2
1.414179494E0,-8.300124854E-2,-8.544471115E-2,-2.512181364E-2
1.416590484E0,-8.666644245E-2,-8.177952468E-2,-2.084576152E-2
1.419001525E0,-9.033162892E-2,-7.933606207E-2,-1.779143699E-2
1.421412515E0,-9.277509153E-2,-7.689260691E-2,-1.290451828E-2
1.423823557E0,-9.582941234E-2,-7.506000996E-2,-7.406735327E-3
1.426234598E0,-9.644027799E-2,-7.383827865E-2,-1.908952487E-3
1.428645588E0,-9.827287495E-2,-7.200568914E-2,2.367100911E-3
1.431056630E0,-9.888373315E-2,-7.078395784E-2,7.864884101E-3
1.433467619E0,-9.827287495E-2,-6.956222653E-2,1.336266659E-2
1.435878661E0,-9.827287495E-2,-6.956222653E-2,1.824958436E-2
1.438289650E0,-9.827287495E-2,-6.834049523E-2,2.252563834E-2
1.440700692E0,-9.582941234E-2,-6.772962958E-2,2.619082667E-2
1.443111734E0,-9.399681538E-2,-6.589704007E-2,3.107774630E-2
1.445522723E0,-9.033162892E-2,-6.650790572E-2,3.474293277E-2
1.447933765E0,-8.544471115E-2,-6.467530876E-2,3.901898861E-2
1.450344755E0,-7.994692773E-2,-6.345357746E-2,4.207331315E-2
1.452755796E0,-7.444914430E-2,-6.101011857E-2,4.512763396E-2
1.455166786E0,-6.711876392E-2,-6.039925665E-2,4.696023092E-2
1.457577827E0,-6.162098423E-2,-5.673406646E-2,4.879282415E-2
1.459988869E0,-5.551233515E-2,-5.306887627E-2,4.757109284E-2
1.462399859E0,-4.940368980E-2,-5.123628303E-2,4.940368980E-2
1.464810900E0,-4.085158184E-2,-4.696023092E-2,4.940368980E-2
1.467221890E0,-3.596466407E-2,-3.962985426E-2,4.818195850E-2
1.469632932E0,-3.229947388E-2,-3.352120519E-2,4.757109284E-2
1.472043921E0,-2.680169232E-2,-2.802342176E-2,4.696023092E-2
1.474454963E0,-2.313650399E-2,-1.947131567E-2,4.634936526E-2
1.476866005E0,-2.069304511E-2,-1.153007243E-2,4.634936526E-2
1.479276994E0,-1.763872057E-2,-2.977965865E-3,4.757109284E-2
1.481688036E0,-1.580612548E-2,4.963276442E-3,4.757109284E-2
1.484099025E0,-1.336266659E-2,1.412624773E-2,4.818195850E-2
1.486510067E0,-9.697478265E-3,2.451094985E-2,4.818195850E-2
1.488921109E0,-9.086613543E-3,3.550651670E-2,4.696023092E-2
1.491332098E0,-7.864884101E-3,4.589121789E-2,4.634936526E-2
1.493743140E0,-7.254019380E-3,5.749764666E-2,4.634936526E-2
1.496154130E0,-6.643154658E-3,6.849320978E-2,4.512763396E-2
1.498565171E0,-8.475748822E-3,7.887791097E-2,4.268417507E-2
1.500976161E0,-8.475748822E-3,8.987347782E-2,4.085158184E-2
1.503387202E0,-8.475748822E-3,9.842558950E-2,3.840812296E-2
1.505798244E0,-9.697478265E-3,1.069776937E-1,3.718639165E-2
1.508209234E0,-9.697478265E-3,1.155297980E-1,3.535379842E-2
1.510620275E0,-1.091920771E-2,1.210275814E-1,3.413207084E-2
1.513031265E0,-1.214093715E-2,1.234710440E-1,3.168861195E-2
1.515442307E0,-1.214093715E-2,1.271362305E-1,3.046688065E-2
1.517853348E0,-1.030834299E-2,1.277471036E-1,2.863428742E-2
1.520264338E0,-9.697478265E-3,1.271362305E-1,2.619082667E-2
1.522675380E0,-6.643154658E-3,1.259144992E-1,2.557996288E-2
1.525086369E0,-4.810560029E-3,1.228601784E-1,2.619082667E-2
1.527497411E0,-2.367100911E-3,1.161406636E-1,2.435823344E-2
1.529908400E0,-5.345066893E-4,1.100320220E-1,2.557996288E-2
1.532319442E0,2.519817324E-3,1.027016416E-1,2.496909723E-2
1.534730484E0,6.795870606E-3,9.353867173E-2,2.619082667E-2
1.537141473E0,8.628465235E-3,8.437569439E-2,2.985601686E-2
1.539552515E0,1.107192412E-2,7.276926935E-2,3.168861195E-2
1.541963505E0,1.595884189E-2,6.116283685E-2,3.535379842E-2
1.544374546E0,1.840230078E-2,5.138900131E-2,3.779725730E-2
1.546785588E0,2.023489587E-2,3.978256881E-2,4.024071619E-2
1.549196577E0,2.206749097E-2,2.878700197E-2,4.329504073E-2
1.551607619E0,2.328922041E-2,1.901316643E-2,4.573849961E-2
1.554018609E0,2.451094985E-2,1.107192412E-2,4.818195850E-2
1.556429650E0,2.451094985E-2,1.908952487E-3,5.062541738E-2
1.558840640E0,2.512181364E-2,-2.977965865E-3,5.306887627E-2
1.561251682E0,2.573267929E-2,-1.153007243E-2,5.490147322E-2
1.563662671E0,2.695440874E-2,-1.641699113E-2,5.673406646E-2
1.566073713E0,2.695440874E-2,-2.191477455E-2,5.612320080E-2
1.568484755E0,2.634354308E-2,-2.557996288E-2,5.551233515E-2
1.570895744E0,2.695440874E-2,-2.680169232E-2,5.673406646E-2
1.573306786E0,2.756527252E-2,-2.680169232E-2,5.551233515E-2
1.575717775E0,2.634354308E-2,-2.557996288E-2,5.429060757E-2
1.578128817E0,2.695440874E-2,-2.496909723E-2,5.367974192E-2
1.580539859E0,2.573267929E-2,-2.374736778E-2,5.062541738E-2
1.582950848E0,2.573267929E-2,-2.008217946E-2,5.001455545E-2
1.585361890E0,2.634354308E-2,-1.580612548E-2,4.818195850E-2
1.587772880E0,2.512181364E-2,-1.214093715E-2,4.757109284E-2
1.590183921E0,2.634354308E-2,-7.864884101E-3,4.634936526E-2
1.592594963E0,2.756527252E-2,-2.367100911E-3,4.879282415E-2
1.595005952E0,2.756527252E-2,2.519817324E-3,4.634936526E-2
1.597416994E0,2.878700197E-2,8.017600514E-3,4.696023092E-2
1.599827984E0,3.123046272E-2,1.351538301E-2,4.696023092E-2
1.602239025E0,3.000873141E-2,1.901316643E-2,4.757109284E-2
1.604650015E0,3.184132650E-2,2.573267929E-2,4.757109284E-2
1.607061057E0,3.184132650E-2,3.184132650E-2,4.818195850E-2
1.609472046E0,3.123046272E-2,3.794997558E-2,4.940368980E-2
1.611883088E0,3.306305781E-2,4.589121789E-2,5.001455545E-2
1.614294130E0,3.184132650E-2,5.444332212E-2,5.123628303E-2
1.616705119E0,3.000873141E-2,6.238456443E-2,5.245801434E-2
1.619116161E0,2.878700197E-2,7.032580674E-2,5.306887627E-2
1.621527202E0,2.573267929E-2,7.582359016E-2,5.551233515E-2
1.623938192E0,2.512181364E-2,8.437569439E-2,5.673406646E-2
1.626349234E0,2.145662531E-2,9.231694043E-2,5.673406646E-2
1.628760223E0,1.840230078E-2,9.964732081E-2,5.795579776E-2
1.631171265E0,1.534797717E-2,1.063668281E-1,5.978839099E-2
1.633582255E0,1.168278884E-2,1.130863428E-1,5.978839099E-2
1.635993296E0,8.628465235E-3,1.191949919E-1,5.917752534E-2
1.638404338E0,5.574141163E-3,1.253036410E-1,5.917752534E-2
1.640815327E0,3.741546767E-3,1.295796931E-1,6.039925665E-2
1.643226369E0,1.908952487E-3,1.332448870E-1,5.917752534E-2
1.645637359E0,1.298087649E-3,1.344666034E-1,5.734493211E-2
1.648048400E0,-1.145371469E-3,1.344666034E-1,5.673406646E-2
1.650459390E0,-5.345066893E-4,1.350774765E-1,5.551233515E-2
1.652870432E0,-5.345066893E-4,1.332448870E-1,5.429060757E-2
1.655281473E0,6.872228696E-4,1.320231557E-1,5.367974192E-2
1.657692463E0,6.872228696E-4,1.271362305E-1,5.245801434E-2
1.660103505E0,1.908952487E-3,1.222493127E-1,4.940368980E-2
1.662514494E0,3.130682046E-3,1.155297980E-1,4.818195850E-2
1.664925536E0,4.963276442E-3,1.106428802E-1,4.573849961E-2
1.667336525E0,5.574141163E-3,1.020907760E-1,4.207331315E-2
1.669747567E0,6.185005885E-3,9.476039559E-2,3.901898861E-2
1.672158609E0,7.406735327E-3,8.620829135E-2,3.596466407E-2
1.674569598E0,8.017600514E-3,7.704532146E-2,3.352120519E-2
1.676980640E0,9.239329956E-3,6.849320978E-2,2.924515121E-2
1.679391630E0,9.239329956E-3,5.505418777E-2,2.741255611E-2
1.681802671E0,8.628465235E-3,4.405862093E-2,2.496909723E-2
1.684213713E0,8.628465235E-3,3.367391974E-2,2.313650399E-2
1.686624702E0,9.850194678E-3,2.145662531E-2,2.191477455E-2
1.689035744E0,8.628465235E-3,9.239329956E-3,2.191477455E-2
1.691446734E0,8.017600514E-3,-2.977965865E-3,2.130390890E-2
1.693857775E0,9.239329956E-3,-1.397353224E-2,2.191477455E-2
1.696268765E0,8.017600514E-3,-2.680169232E-2,2.435823344E-2
1.698679807E0,6.185005885E-3,-3.901898861E-2,2.496909723E-2
1.701090848E0,6.185005885E-3,-4.940368980E-2,2.741255611E-2
1.703501838E0,6.795870606E-3,-5.917752534E-2,2.985601686E-2
1.705912880E0,6.185005885E-3,-7.139482349E-2,3.168861195E-2
1.708323869E0,4.963276442E-3,-7.994692773E-2,3.535379842E-2
1.710734911E0,4.352411721E-3,-8.972076327E-2,3.840812296E-2
1.713145952E0,6.795870606E-3,-9.766200930E-2,4.207331315E-2
1.715556942E0,5.574141163E-3,-1.056032479E-1,4.696023092E-2
1.717967984E0,7.406735327E-3,-1.111010313E-1,4.879282415E-2
1.720378973E0,8.017600514E-3,-1.172096804E-1,5.184714869E-2
1.722790015E0,9.239329956E-3,-1.214857325E-1,5.367974192E-2
1.725201005E0,1.046105940E-2,-1.233183295E-1,5.367974192E-2
1.727612046E0,1.107192412E-2,-1.263726503E-1,5.673406646E-2
1.730023036E0,1.168278884E-2,-1.282052398E-1,5.795579776E-2
1.732434077E0,1.351538301E-2,-1.275943816E-1,6.039925665E-2
1.734845119E0,1.107192412E-2,-1.233183295E-1,6.284271181E-2
1.737256109E0,1.107192412E-2,-1.214857325E-1,6.467530876E-2
1.739667150E0,9.850194678E-3,-1.165988147E-1,6.834049523E-2
1.742078140E0,9.239329956E-3,-1.092684343E-1,7.261654735E-2
1.744489182E0,8.017600514E-3,-1.001054645E-1,7.444914430E-2
1.746900223E0,5.574141163E-3,-8.972076327E-2,7.628174126E-2
1.749311213E0,1.908952487E-3,-7.811433077E-2,7.933606207E-2
1.751722255E0,-2.367100911E-3,-6.406444311E-2,7.994692773E-2
1.754133244E0,-5.421424750E-3,-5.001455545E-2,8.239039034E-2
1.756544286E0,-7.254019380E-3,-3.474293277E-2,8.422297984E-2
1.758955275E0,-1.030834299E-2,-2.008217946E-2,8.361211419E-2
1.761366317E0,-1.275180187E-2,-4.810560029E-3,8.300124854E-2
1.763777359E0,-1.275180187E-2,1.168278884E-2,8.116865903E-2
1.766188348E0,-1.275180187E-2,2.817613818E-2,7.811433077E-2
1.768599390E0,-1.397353224E-2,4.039343446E-2,7.444914430E-2
1.771010380E0,-1.214093715E-2,5.627591908E-2,7.017309219E-2
1.773421421E0,-1.030834299E-2,6.910407543E-2,6.467530876E-2
1.775832463E0,-8.475748822E-3,8.071050793E-2,5.978839099E-2
1.778243452E0,-6.643154658E-3,9.048434347E-2,5.429060757E-2
1.780654494E0,-5.421424750E-3,1.002581790E-1,5.062541738E-2
1.783065484E0,-2.977965865E-3,1.069776937E-1,4.512763396E-2
1.785476525E0,1.908952487E-3,1.136972085E-1,4.024071619E-2
1.787887515E0,3.741546767E-3,1.161406636E-1,3.596466407E-2
1.790298557E0,6.185005885E-3,1.216384470E-1,3.229947388E-2
1.792709598E0,9.850194678E-3,1.228601784E-1,2.863428742E-2
1.795120588E0,1.290451828E-2,1.216384470E-1,2.619082667E-2
1.797531630E0,1.779143699E-2,1.210275814E-1,2.313650399E-2
1.799942619E0,2.023489587E-2,1.191949919E-1,2.008217946E-2
1.802353661E0,2.451094985E-2,1.155297980E-1,1.824958436E-2
1.804764650E0,2.634354308E-2,1.100320220E-1,1.824958436E-2
1.807175692E0,2.756527252E-2,1.027016416E-1,1.580612548E-2
1.809586734E0,3.061959706E-2,9.659299254E-2,1.519526169E-2
1.811997723E0,3.367391974E-2,8.804088831E-2,1.397353224E-2
1.814408765E0,3.489565104E-2,7.948877662E-2,1.275180187E-2
1.816819755E0,3.550651670E-2,7.154753804E-2,1.030834299E-2
1.819230796E0,3.611737862E-2,6.238456443E-2,6.643154658E-3
1.821641838E0,3.489565104E-2,5.261072889E-2,6.032289471E-3
1.824052827E0,3.672824427E-2,4.528035223E-2,1.145371469E-3
1.826463869E0,3.550651670E-2,3.672824427E-2,-1.298087649E-3
1.828874859E0,3.428478539E-2,2.817613818E-2,-5.574141163E-3
1.831285900E0,3.428478539E-2,2.084576152E-2,-9.239329956E-3
1.833696890E0,3.123046272E-2,1.290451828E-2,-1.290451828E-2
1.836107932E0,2.817613818E-2,8.628465235E-3,-1.656970754E-2
1.838518973E0,2.512181364E-2,3.741546767E-3,-2.023489587E-2
1.840929963E0,2.084576152E-2,-1.756236190E-3,-2.451094985E-2
1.843341005E0,1.412624773E-2,-6.643154658E-3,-3.000873141E-2
1.845751994E0,9.850194678E-3,-8.475748822E-3,-3.489565104E-2
1.848163036E0,4.963276442E-3,-9.697478265E-3,-4.039343446E-2
1.850574077E0,7.635809743E-5,-1.275180187E-2,-4.650207981E-2
1.852985067E0,-3.588830587E-3,-1.458439697E-2,-5.138900131E-2
1.855396109E0,-8.475748822E-3,-1.458439697E-2,-5.688678101E-2
1.857807098E0,-1.275180187E-2,-1.641699113E-2,-6.299543381E-2
1.860218140E0,-1.580612548E-2,-1.641699113E-2,-7.032580674E-2
1.862629182E0,-2.130390890E-2,-1.702785492E-2,-7.582359016E-2
1.865040171E0,-2.374736778E-2,-1.763872057E-2,-8.071050793E-2
1.867451213E0,-2.680169232E-2,-1.886045001E-2,-8.498656005E-2
1.869862202E0,-2.985601686E-2,-1.763872057E-2,-8.804088831E-2
1.872273244E0,-3.291033953E-2,-2.008217946E-2,-9.231694043E-2
1.874684234E0,-3.168861195E-2,-1.886045001E-2,-9.353867173E-2
1.877095275E0,-3.168861195E-2,-2.069304511E-2,-9.476039559E-2
1.879506265E0,-3.229947388E-2,-2.130390890E-2,-9.537126124E-2
1.881917307E0,-3.046688065E-2,-2.191477455E-2,-9.659299254E-2
1.884328348E0,-2.863428742E-2,-2.008217946E-2,-9.720385820E-2
1.886739338E0,-2.802342176E-2,-1.947131567E-2,-9.720385820E-2
1.889150380E0,-2.435823344E-2,-1.763872057E-2,-9.781472385E-2
1.891561369E0,-2.313650399E-2,-1.519526169E-2,-9.659299254E-2
1.893972411E0,-2.130390890E-2,-1.214093715E-2,-9.659299254E-2
1.896383400E0,-2.069304511E-2,-9.697478265E-3,-9.476039559E-2
1.898794442E0,-1.580612548E-2,-2.977965865E-3,-9.598212689E-2
1.901205484E0,-1.336266659E-2,-5.345066893E-4,-9.353867173E-2
1.903616473E0,-1.153007243E-2,4.963276442E-3,-9.292780608E-2
1.906027515E0,-1.030834299E-2,1.046105940E-2,-9.109520912E-2
1.908438505E0,-7.864884101E-3,1.656970754E-2,-9.048434347E-2
1.910849546E0,-4.810560029E-3,2.451094985E-2,-8.926261961E-2
1.913260588E0,-4.199695308E-3,3.061959706E-2,-8.743002266E-2
1.915671577E0,-1.756236190E-3,3.733910993E-2,-8.376483619E-2
1.918082619E0,7.635809743E-5,4.405862093E-2,-8.193223923E-2
1.920493609E0,6.872228696E-4,4.894553870E-2,-7.765618712E-2
1.922904650E0,3.741546767E-3,5.261072889E-2,-7.399099320E-2
1.925315692E0,7.406735327E-3,5.810851231E-2,-6.971494108E-2
1.927726682E0,1.046105940E-2,6.177370250E-2,-6.604975462E-2
1.930137723E0,1.412624773E-2,6.360629201E-2,-5.994110554E-2
1.932548713E0,1.840230078E-2,6.604975462E-2,-5.383246019E-2
1.934959755E0,2.145662531E-2,6.727148592E-2,-4.894553870E-2
1.937370744E0,2.328922041E-2,6.727148592E-2,-4.161516204E-2
1.939781786E0,2.695440874E-2,6.543888897E-2,-3.672824427E-2
1.942192827E0,3.061959706E-2,6.543888897E-2,-3.123046272E-2
1.944603817E0,3.428478539E-2,6.421715766E-2,-2.573267929E-2
1.947014859E0,3.672824427E-2,6.238456443E-2,-1.901316643E-2
1.949425848E0,4.100430012E-2,6.177370250E-2,-1.534797717E-2
1.951836890E0,4.528035223E-2,5.994110554E-2,-1.168278884E-2
1.954247880E0,4.833467677E-2,5.749764666E-2,-7.406735327E-3
1.956658921E0,4.833467677E-2,5.505418777E-2,-3.741546767E-3
1.959069963E0,5.322159454E-2,5.383246019E-2,-1.298087649E-3
1.961480952E0,5.444332212E-2,5.383246019E-2,-7.635809743E-5
1.963891994E0,5.871937796E-2,5.322159454E-2,1.145371469E-3
1.966302984E0,6.177370250E-2,5.077813566E-2,2.977965865E-3
1.968714025E0,6.421715766E-2,5.138900131E-2,4.810560029E-3
1.971125067E0,6.421715766E-2,5.016727000E-2,6.032289471E-3
1.973536057E0,6.299543381E-2,5.138900131E-2,7.254019380E-3
1.975947098E0,6.238456443E-2,5.383246019E-2,6.643154658E-3
1.978358088E0,6.177370250E-2,5.749764666E-2,6.643154658E-3
1.980769130E0,5.994110554E-2,5.933023989E-2,6.643154658E-3
1.983180119E0,5.871937796E-2,6.177370250E-2,6.032289471E-3
1.985591161E0,5.627591908E-2,6.421715766E-2,6.032289471E-3
1.988002202E0,5.627591908E-2,6.666062027E-2,5.421424750E-3
1.990413192E0,5.505418777E-2,6.727148592E-2,5.421424750E-3
1.992824234E0,5.566505343E-2,7.093667239E-2,4.810560029E-3
1.995235223E0,5.016727000E-2,7.154753804E-2,2.977965865E-3
1.997646265E0,4.650207981E-2,7.154753804E-2,1.756236190E-3
2.000057255E0,4.222602770E-2,7.154753804E-2,1.145371469E-3
2.002468296E0,3.856083751E-2,7.154753804E-2,-7.635809743E-5
2.004879338E0,3.672824427E-2,7.032580674E-2,-1.298087649E-3
2.007290327E0,3.123046272E-2,6.849320978E-2,-1.908952487E-3
2.009701369E0,2.634354308E-2,6.421715766E-2,-2.519817324E-3
2.012112359E0,2.328922041E-2,6.116283685E-2,-5.574141163E-3
2.014523400E0,1.840230078E-2,5.688678101E-2,-8.017600514E-3
2.016934442E0,1.351538301E-2,5.261072889E-2,-1.046105940E-2
2.019345432E0,9.850194678E-3,4.833467677E-2,-1.534797717E-2
2.021756473E0,6.795870606E-3,4.405862093E-2,-1.718057133E-2
2.024167463E0,3.741546767E-3,3.917170316E-2,-2.145662531E-2
2.026578505E0,4.352411721E-3,3.000873141E-2,-2.390008420E-2
2.028989494E0,2.519817324E-3,2.267835476E-2,-2.695440874E-2
2.031400536E0,-5.345066893E-4,1.534797717E-2,-2.939786762E-2
2.033811577E0,-2.977965865E-3,6.185005885E-3,-3.184132650E-2
2.036222567E0,-4.199695308E-3,-5.345066893E-4,-3.428478539E-2
2.038633609E0,-6.032289471E-3,-1.030834299E-2,-3.672824427E-2
2.041044598E0,-7.254019380E-3,-1.824958436E-2,-3.794997558E-2
2.043455640E0,-7.864884101E-3,-2.619082667E-2,-3.917170316E-2
2.045866682E0,-8.475748822E-3,-3.413207084E-2,-4.100430012E-2
2.048277671E0,-1.091920771E-2,-4.268417507E-2,-4.100430012E-2
2.050688713E0,-1.091920771E-2,-4.757109284E-2,-4.161516204E-2
2.053099702E0,-1.153007243E-2,-5.490147322E-2,-4.039343446E-2
2.055510744E0,-1.275180187E-2,-6.162098423E-2,-3.917170316E-2
2.057921734E0,-1.275180187E-2,-6.772962958E-2,-3.917170316E-2
2.060332775E0,-1.153007243E-2,-7.017309219E-2,-3.733910993E-2
2.062743817E0,-1.091920771E-2,-7.322741300E-2,-3.733910993E-2
2.065154807E0,-1.275180187E-2,-7.628174126E-2,-3.672824427E-2
2.067565848E0,-1.091920771E-2,-7.689260691E-2,-3.672824427E-2
2.069976838E0,-1.397353224E-2,-7.933606207E-2,-3.672824427E-2
2.072387880E0,-1.336266659E-2,-7.750347257E-2,-3.611737862E-2
2.074798869E0,-1.275180187E-2,-7.811433077E-2,-3.733910993E-2
2.077209911E0,-1.153007243E-2,-7.689260691E-2,-3.489565104E-2
2.079620952E0,-1.214093715E-2,-7.506000996E-2,-3.306305781E-2
2.082031942E0,-1.030834299E-2,-7.200568914E-2,-3.367391974E-2
2.084442984E0,-8.475748822E-3,-7.017309219E-2,-3.184132650E-2
2.086853973E0,-6.643154658E-3,-6.834049523E-2,-3.000873141E-2
2.089265015E0,-4.199695308E-3,-6.406444311E-2,-3.000873141E-2
2.091676057E0,-1.145371469E-3,-6.101011857E-2,-2.939786762E-2
2.094087046E0,2.519817324E-3,-5.856665969E-2,-2.817613818E-2
2.096498088E0,4.352411721E-3,-5.429060757E-2,-2.573267929E-2
2.098909077E0,7.406735327E-3,-4.879282415E-2,-2.512181364E-2
2.101320119E0,1.107192412E-2,-4.512763396E-2,-2.451094985E-2
2.103731109E0,1.290451828E-2,-3.962985426E-2,-2.267835476E-2
2.106142150E0,1.656970754E-2,-3.352120519E-2,-2.145662531E-2
2.108553192E0,1.779143699E-2,-2.985601686E-2,-1.901316643E-2
2.110964182E0,1.718057133E-2,-2.435823344E-2,-1.595884189E-2
2.113375223E0,1.962403022E-2,-1.763872057E-2,-1.412624773E-2
2.115786213E0,2.145662531E-2,-9.697478265E-3,-1.168278884E-2
2.118197255E0,2.328922041E-2,-4.199695308E-3,-9.239329956E-3
2.120608244E0,2.451094985E-2,2.519817324E-3,-5.574141163E-3
2.123019286E0,2.390008420E-2,9.850194678E-3,-3.741546767E-3
2.125430327E0,2.451094985E-2,1.718057133E-2,-1.298087649E-3
2.127841317E0,2.512181364E-2,2.390008420E-2,2.367100911E-3
2.130252359E0,2.451094985E-2,3.000873141E-2,3.588830587E-3
2.132663348E0,2.206749097E-2,3.550651670E-2,6.032289471E-3
2.135074390E0,2.328922041E-2,4.344775900E-2,9.086613543E-3
2.137485432E0,2.328922041E-2,4.955640435E-2,1.030834299E-2
2.139896421E0,2.267835476E-2,5.322159454E-2,1.214093715E-2
2.142307463E0,2.206749097E-2,5.933023989E-2,1.458439697E-2
2.144718452E0,2.145662531E-2,6.604975462E-2,1.458439697E-2
2.147129494E0,1.901316643E-2,7.032580674E-2,1.641699113E-2
2.149540484E0,1.779143699E-2,7.521272451E-2,1.641699113E-2
2.151951525E0,1.534797717E-2,7.887791097E-2,1.763872057E-2
2.154362567E0,1.351538301E-2,8.132137358E-2,1.886045001E-2
2.156773557E0,9.239329956E-3,8.193223923E-2,2.130390890E-2
2.159184598E0,8.017600514E-3,8.315397054E-2,2.252563834E-2
2.161595588E0,8.017600514E-3,8.315397054E-2,2.619082667E-2
2.164006630E0,6.795870606E-3,8.132137358E-2,2.863428742E-2
2.166417671E0,4.352411721E-3,7.826705277E-2,3.291033953E-2
2.168828661E0,6.185005885E-3,7.521272451E-2,3.596466407E-2
2.171239702E0,8.017600514E-3,7.093667239E-2,3.779725730E-2
2.173650692E0,6.795870606E-3,6.543888897E-2,3.901898861E-2
2.176061734E0,6.795870606E-3,5.627591908E-2,4.024071619E-2
2.178472723E0,9.239329956E-3,4.894553870E-2,4.085158184E-2
2.180883765E0,1.046105940E-2,4.039343446E-2,4.268417507E-2
2.183294755E0,1.107192412E-2,3.061959706E-2,4.329504073E-2
2.185705796E0,1.168278884E-2,2.084576152E-2,4.451677203E-2
2.188116838E0,9.239329956E-3,8.628465235E-3,4.573849961E-2
2.190527827E0,9.850194678E-3,-2.977965865E-3,4.573849961E-2
2.192938869E0,9.850194678E-3,-1.458439697E-2,4.634936526E-2
2.195349859E0,9.239329956E-3,-2.557996288E-2,4.757109284E-2
2.197760900E0,8.628465235E-3,-3.718639165E-2,4.940368980E-2
2.200171942E0,8.628465235E-3,-5.001455545E-2,4.879282415E-2
2.202582932E0,7.406735327E-3,-5.917752534E-2,4.940368980E-2
2.204993973E0,6.795870606E-3,-7.017309219E-2,5.062541738E-2
2.207404963E0,8.017600514E-3,-7.933606207E-2,5.184714869E-2
2.209816005E0,7.406735327E-3,-8.788817376E-2,5.429060757E-2
2.212227046E0,8.628465235E-3,-9.399681538E-2,5.551233515E-2
2.214638036E0,8.628465235E-3,-1.007163301E-1,5.673406646E-2
2.217049077E0,8.628465235E-3,-1.056032479E-1,5.856665969E-2
2.219460067E0,8.628465235E-3,-1.080467105E-1,5.673406646E-2
2.221871109E0,7.406735327E-3,-1.098793000E-1,5.856665969E-2
2.224282098E0,6.795870606E-3,-1.086575761E-1,5.917752534E-2
2.226693140E0,6.795870606E-3,-1.068249792E-1,5.978839099E-2
2.229104182E0,6.185005885E-3,-1.049923822E-1,6.039925665E-2
2.231515171E0,7.406735327E-3,-1.007163301E-1,5.978839099E-2
2.233926213E0,9.850194678E-3,-9.338594973E-2,5.734493211E-2
2.236337202E0,1.168278884E-2,-8.666644245E-2,5.612320080E-2
2.238748244E0,1.107192412E-2,-7.933606207E-2,5.367974192E-2
2.241159234E0,9.850194678E-3,-6.956222653E-2,5.001455545E-2
2.243570275E0,1.046105940E-2,-6.162098423E-2,4.634936526E-2
2.245981317E0,1.229365356E-2,-5.123628303E-2,4.390590638E-2
2.248392307E0,1.229365356E-2,-4.207331315E-2,4.207331315E-2
2.250803348E0,1.168278884E-2,-3.352120519E-2,3.901898861E-2
2.253214338E0,1.412624773E-2,-2.557996288E-2,3.901898861E-2
2.255625380E0,1.290451828E-2,-1.580612548E-2,3.901898861E-2
2.258036421E0,1.534797717E-2,-8.475748822E-3,3.779725730E-2
2.260447411E0,1.656970754E-2,-2.367100911E-3,3.840812296E-2
2.262858452E0,1.779143699E-2,4.963276442E-3,3.840812296E-2
2.265269442E0,1.840230078E-2,9.850194678E-3,3.901898861E-2
2.267680484E0,2.023489587E-2,1.534797717E-2,3.962985426E-2
2.270091473E0,2.206749097E-2,1.840230078E-2,4.085158184E-2
2.272502515E0,2.451094985E-2,2.267835476E-2,4.085158184E-2
2.274913557E0,2.695440874E-2,2.512181364E-2,4.329504073E-2
2.277324546E0,2.756527252E-2,2.695440874E-2,4.451677203E-2
2.279735588E0,2.939786762E-2,3.000873141E-2,4.634936526E-2
2.282146577E0,3.061959706E-2,3.184132650E-2,4.757109284E-2
2.284557619E0,3.306305781E-2,3.367391974E-2,4.940368980E-2
2.286968661E0,3.306305781E-2,3.367391974E-2,5.062541738E-2
2.289379650E0,3.428478539E-2,3.428478539E-2,5.184714869E-2
2.291790692E0,3.672824427E-2,3.672824427E-2,5.184714869E-2
2.294201682E0,3.733910993E-2,3.672824427E-2,5.306887627E-2
2.296612723E0,3.794997558E-2,3.978256881E-2,5.367974192E-2
2.299023713E0,3.856083751E-2,4.100430012E-2,5.245801434E-2
2.301434755E0,4.100430012E-2,4.466948658E-2,5.184714869E-2
2.303845796E0,3.978256881E-2,4.833467677E-2,5.001455545E-2
2.306256786E0,3.794997558E-2,5.322159454E-2,4.696023092E-2
2.308667827E0,3.367391974E-2,5.627591908E-2,4.268417507E-2
2.311078817E0,3.061959706E-2,6.299543381E-2,3.779725730E-2
2.313489859E0,2.634354308E-2,6.727148592E-2,3.168861195E-2
2.315900848E0,2.145662531E-2,7.338013500E-2,2.802342176E-2
2.318311890E0,1.840230078E-2,7.826705277E-2,2.191477455E-2
2.320722932E0,1.534797717E-2,8.315397054E-2,1.458439697E-2
2.323133921E0,8.017600514E-3,8.743002266E-2,7.254019380E-3
2.325544963E0,3.130682046E-3,9.048434347E-2,5.345066893E-4
2.327955952E0,-1.145371469E-3,9.414953738E-2,-8.628465235E-3
2.330366994E0,-9.086613543E-3,9.598212689E-2,-1.840230078E-2
2.332777984E0,-1.824958436E-2,9.353867173E-2,-2.817613818E-2
2.335189025E0,-2.374736778E-2,8.926261961E-2,-3.672824427E-2
2.337600067E0,-2.863428742E-2,8.071050793E-2,-4.466948658E-2
2.340011057E0,-3.168861195E-2,6.788235158E-2,-5.261072889E-2
2.342422098E0,-3.596466407E-2,5.016727000E-2,-6.360629201E-2
2.344833088E0,-4.024071619E-2,2.878700197E-2,-7.154753804E-2
2.347244130E0,-4.573849961E-2,6.872228696E-4,-7.765618712E-2
2.349655171E0,-5.306887627E-2,-3.168861195E-2,-8.193223923E-2
2.352066161E0,-6.284271181E-2,-6.711876392E-2,-8.620829135E-2
2.354477202E0,-7.750347257E-2,-1.092684343E-1,-8.559742570E-2
2.356888192E0,-9.338594973E-2,-1.569158882E-1,-8.132137358E-2
2.359299234E0,-1.092684343E-1,-2.118937224E-1,-7.582359016E-2
2.361710275E0,-1.220965981E-1,-2.711476088E-1,-6.543888897E-2
2.364121265E0,-1.373682171E-1,-3.365101218E-1,-5.322159454E-2
2.366532307E0,-1.501963735E-1,-4.061487317E-1,-4.283689335E-2
2.368943296E0,-1.501963735E-1,-4.751764536E-1,-2.573267929E-2
2.371354338E0,-1.330921650E-1,-5.442041755E-1,-3.130682046E-3
2.373765327E0,-9.155336022E-2,-6.120101213E-1,2.802342176E-2
2.376176369E0,-2.069304511E-2,-6.749292016E-1,5.734493211E-2
2.378587411E0,5.871937796E-2,-7.366265655E-1,8.116865903E-2
2.380998400E0,1.228601784E-1,-7.891609073E-1,1.001054645E-1
2.383409442E0,1.601229310E-1,-8.404735923E-1,1.104901657E-1
2.385820432E0,1.760054082E-1,-8.893427849E-1,1.165988147E-1
2.388231473E0,1.650098413E-1,-9.376010895E-1,1.373682171E-1
2.390642463E0,1.301905513E-1,-9.791398644E-1,1.538615674E-1
2.393053505E0,6.849320978E-2,-1.007239699E0,1.648571342E-1
2.395464546E0,-5.421424750E-3,-1.018846035E0,1.752418280E-1
2.397875536E0,-8.972076327E-2,-1.021289587E0,1.850156635E-1
2.400286577E0,-1.709657758E-1,-1.013348341E0,1.850156635E-1
2.402697567E0,-2.546542585E-1,-9.974658489E-1,1.813504845E-1
2.405108609E0,-3.297906220E-1,-9.748638272E-1,1.789070219E-1
2.407519598E0,-4.006509483E-1,-9.473749399E-1,1.752418280E-1
2.409930640E0,-4.696786702E-1,-9.168316722E-1,1.721875072E-1
2.412341682E0,-5.350412130E-1,-8.814015388E-1,1.709657758E-1
2.414752671E0,-6.022363305E-1,-8.416953087E-1,1.679114550E-1
2.417163713E0,-6.718748808E-1,-7.983239293E-1,1.642462611E-1
2.419574702E0,-7.415134907E-1,-7.525090575E-1,1.605810821E-1
2.421985744E0,-8.111520410E-1,-7.042507529E-1,1.593593508E-1
2.424396734E0,-8.838449717E-1,-6.511055231E-1,1.550832987E-1
2.426807775E0,-9.553161860E-1,-5.930733681E-1,1.514181048E-1
2.429218817E0,-1.026787281E0,-5.319868922E-1,1.477529258E-1
2.431629807E0,-1.101923704E0,-4.702895284E-1,1.440877318E-1
2.434040848E0,-1.175838351E0,-4.067595899E-1,1.410334110E-1
2.436451890E0,-1.249752998E0,-3.377318680E-1,1.373682171E-1
2.438862880E0,-1.323056698E0,-2.693150043E-1,1.330921650E-1
2.441273921E0,-1.398803949E0,-1.972329617E-1,1.294269711E-1
2.443684911E0,-1.470885992E0,-1.233183295E-1,1.251509190E-1
2.446095952E0,-1.545411587E0,-5.123628303E-2,1.220965981E-1
2.448506942E0,-1.619937062E0,2.451094985E-2,1.159879491E-1
2.450917984E0,-1.693240762E0,9.842558950E-2,1.123227626E-1
2.453329025E0,-1.764711976E0,1.723402292E-1,1.068249792E-1
2.455740015E0,-1.834961414E0,2.456440032E-1,1.025489271E-1
2.458151057E0,-1.903989196E0,3.189477623E-1,9.705114365E-2
2.460562046E0,-1.972406030E0,3.904189467E-1,9.155336022E-2
2.462973088E0,-2.039601088E0,4.606684148E-1,8.483384550E-2
2.465384077E0,-2.106185436E0,5.260309577E-1,7.994692773E-2
2.467795119E0,-2.167882681E0,5.913934708E-1,7.383827865E-2
2.470206161E0,-2.230190992E0,6.530908346E-1,6.895136088E-2
2.472617150E0,-2.288833857E0,7.129555345E-1,6.345357746E-2
2.475028192E0,-2.348698616E0,7.679333687E-1,5.734493211E-2
2.477439182E0,-2.404287338E0,8.210785985E-1,4.940368980E-2
2.479850223E0,-2.457432747E0,8.687260747E-1,4.451677203E-2
2.482261265E0,-2.508745193E0,9.133192301E-1,3.901898861E-2
2.484672255E0,-2.558836222E0,9.542471170E-1,3.352120519E-2
2.487083296E0,-2.606483698E0,9.902881384E-1,2.557996288E-2
2.489494286E0,-2.652909279E0,1.023274899E0,1.947131567E-2
2.491905327E0,-2.696891546E0,1.051374674E0,1.275180187E-2
2.494316317E0,-2.739652157E0,1.077031016E0,6.643154658E-3
2.496727359E0,-2.778747559E0,1.095967770E0,1.145371469E-3
2.499138400E0,-2.817842960E0,1.112461090E0,-6.185005885E-3
2.501549390E0,-2.855105639E0,1.123456717E0,-1.290451828E-2
2.503960432E0,-2.888703108E0,1.132008791E0,-1.962403022E-2
2.506371421E0,-2.924133301E0,1.135063171E0,-2.451094985E-2
2.508782463E0,-2.956509113E0,1.136284828E0,-3.061959706E-2
2.511193452E0,-2.987052441E0,1.130176187E0,-3.672824427E-2
2.513604494E0,-3.016373873E0,1.121624112E0,-4.344775900E-2
2.516015536E0,-3.043862820E0,1.108185053E0,-4.772381112E-2
2.518426525E0,-3.068297386E0,1.089248300E0,-5.261072889E-2
2.520837567E0,-3.094564676E0,1.065424562E0,-5.810851231E-2
2.523248557E0,-3.116555691E0,1.040379047E0,-6.360629201E-2
2.525659598E0,-3.138546944E0,1.007392406E0,-6.788235158E-2
2.528070640E0,-3.159316301E0,9.701296091E-1,-7.460185885E-2
2.530481630E0,-3.175809622E0,9.310342669E-1,-7.704532146E-2
2.532892671E0,-3.191081285E0,8.858302832E-1,-8.132137358E-2
2.535303661E0,-3.205131054E0,8.375719786E-1,-8.437569439E-2
2.537714702E0,-3.217348337E0,7.844267488E-1,-8.620829135E-2
2.540125692E0,-3.230176687E0,7.270054221E-1,-8.865175396E-2
2.542536734E0,-3.237506866E0,6.671407223E-1,-9.109520912E-2
2.544947775E0,-3.242393970E0,6.036107540E-1,-9.292780608E-2
2.547358765E0,-3.248502493E0,5.364156365E-1,-9.476039559E-2
2.549769807E0,-3.249113321E0,4.655553102E-1,-9.537126124E-2
2.552180796E0,-3.247280836E0,3.940841556E-1,-9.537126124E-2
2.554591838E0,-3.246670008E0,3.195586503E-1,-9.537126124E-2
2.557002827E0,-3.242393970E0,2.425896823E-1,-9.476039559E-2
2.559413869E0,-3.236896038E0,1.631772518E-1,-9.292780608E-2
2.561824911E0,-3.227122307E0,8.437569439E-2,-9.109520912E-2
2.564235900E0,-3.217959404E0,2.519817324E-3,-8.865175396E-2
2.566646942E0,-3.204520226E0,-7.628174126E-2,-8.620829135E-2
2.569057932E0,-3.189859629E0,-1.550832987E-1,-8.315397054E-2
2.571468973E0,-3.173366070E0,-2.357174456E-1,-8.071050793E-2
2.573880015E0,-3.155040264E0,-3.157407343E-1,-7.582359016E-2
2.576291005E0,-3.134270906E0,-3.914879560E-1,-7.093667239E-2
2.578702046E0,-3.111668825E0,-4.672352076E-1,-6.604975462E-2
2.581113036E0,-3.087845087E0,-5.405389667E-1,-6.116283685E-2
2.583524077E0,-3.062799692E0,-6.101775765E-1,-5.566505343E-2
2.585935119E0,-3.035310745E0,-6.779835224E-1,-4.955640435E-2
2.588346109E0,-3.005378246E0,-7.421243787E-1,-4.466948658E-2
2.590757150E0,-2.976056814E0,-8.025999665E-1,-3.794997558E-2
2.593168140E0,-2.944291830E0,-8.594104052E-1,-3.061959706E-2
2.595579182E0,-2.911916018E0,-9.113339186E-1,-2.573267929E-2
2.597990171E0,-2.877707720E0,-9.602030516E-1,-1.840230078E-2
2.600401213E0,-2.841666698E0,-1.004185319E0,-1.229365356E-2
2.602812255E0,-2.803792953E0,-1.042669773E0,-5.574141163E-3
2.605223244E0,-2.768362761E0,-1.077489138E0,1.145371469E-3
2.607634286E0,-2.728045702E0,-1.106199741E0,7.864884101E-3
2.610045275E0,-2.686506987E0,-1.131856084E0,1.397353224E-2
2.612456317E0,-2.647411585E0,-1.153847218E0,2.191477455E-2
2.614867307E0,-2.602818489E0,-1.166064501E0,2.802342176E-2
2.617278348E0,-2.560668707E0,-1.174616575E0,3.413207084E-2
2.619689390E0,-2.516686440E0,-1.178281784E0,4.024071619E-2
2.622100380E0,-2.472093344E0,-1.176449180E0,4.696023092E-2
2.624511421E0,-2.425056934E0,-1.170340538E0,5.245801434E-2
2.626922411E0,-2.378020287E0,-1.158123255E0,5.795579776E-2
2.629333452E0,-2.330983639E0,-1.139186502E0,6.284271181E-2
2.631744494E0,-2.283946991E0,-1.119638801E0,6.956222653E-2
2.634155484E0,-2.233856201E0,-1.089706421E0,7.322741300E-2
2.636566525E0,-2.184376001E0,-1.056108832E0,7.750347257E-2
2.638977515E0,-2.134285212E0,-1.017624378E0,8.239039034E-2
2.641388557E0,-2.082972527E0,-9.760855436E-1,8.727730811E-2
2.643799546E0,-2.032270670E0,-9.272163510E-1,8.972076327E-2
2.646210588E0,-1.979736447E0,-8.740711212E-1,9.338594973E-2
2.648621630E0,-1.927201986E0,-8.166498542E-1,9.582941234E-2
2.651032619E0,-1.874667645E0,-7.543416619E-1,9.766200930E-2
2.653443661E0,-1.823354959E0,-6.883682609E-1,1.013271958E-1
2.655854650E0,-1.770209789E0,-6.175079346E-1,1.019380614E-1
2.658265692E0,-1.717064500E0,-5.435932875E-1,1.031597927E-1
2.660676734E0,-1.663919330E0,-4.672352076E-1,1.056032479E-1
2.663087723E0,-1.611995816E0,-3.884336352E-1,1.056032479E-1
2.665498765E0,-1.559461474E0,-3.071886301E-1,1.074358448E-1
2.667909755E0,-1.509370565E0,-2.247218788E-1,1.062141135E-1
2.670320796E0,-1.457447052E0,-1.392008066E-1,1.074358448E-1
2.672731786E0,-1.407966971E0,-5.490147322E-2,1.080467105E-1
2.675142827E0,-1.357876062E0,3.306305781E-2,1.062141135E-1
2.677553869E0,-1.312061191E0,1.185841262E-1,1.062141135E-1
2.679964859E0,-1.263802886E0,2.047160566E-1,1.062141135E-1
2.682375900E0,-1.217377186E0,2.896262705E-1,1.049923822E-1
2.684786890E0,-1.172173142E0,3.745364547E-1,1.031597927E-1
2.687197932E0,-1.129412651E0,4.551706314E-1,1.025489271E-1
2.689608921E0,-1.085430384E0,5.339722037E-1,1.025489271E-1
2.692019963E0,-1.044502378E0,6.103302836E-1,1.007163301E-1
2.694431005E0,-1.004796147E0,6.842449307E-1,9.949459881E-2
2.696841994E0,-9.669225812E-1,7.544943690E-1,9.827287495E-2
2.699253036E0,-9.308815598E-1,8.186351657E-1,9.521854669E-2
2.701664025E0,-8.966731429E-1,8.803325295E-1,9.521854669E-2
2.704075067E0,-8.649081588E-1,9.377537966E-1,9.338594973E-2
2.706486109E0,-8.325323462E-1,9.890664220E-1,9.277509153E-2
2.708897098E0,-8.038216829E-1,1.034881353E0,9.094249457E-2
2.711308140E0,-7.775545120E-1,1.076420069E0,8.972076327E-2
2.713719130E0,-7.525090575E-1,1.113072038E0,8.849903196E-2
2.716130171E0,-7.280744314E-1,1.143004417E0,8.727730811E-2
2.718541213E0,-7.073050737E-1,1.166828036E0,8.605557680E-2
2.720952202E0,-6.871465445E-1,1.185764909E0,8.483384550E-2
2.723363244E0,-6.694314480E-1,1.196760416E0,8.300124854E-2
2.725774234E0,-6.541598439E-1,1.204090834E0,8.300124854E-2
2.728185275E0,-6.419425011E-1,1.201647401E0,8.300124854E-2
2.730596265E0,-6.303361058E-1,1.196149588E0,8.239039034E-2
2.733007307E0,-6.217839718E-1,1.183321476E0,8.055779338E-2
2.735418296E0,-6.132318974E-1,1.164995551E0,8.055779338E-2
2.737829338E0,-6.089558005E-1,1.139950037E0,8.055779338E-2
2.740240380E0,-6.065123677E-1,1.109406829E0,7.933606207E-2
2.742651369E0,-6.065123677E-1,1.073365808E0,8.055779338E-2
2.745062411E0,-6.095666885E-1,1.030605197E0,7.994692773E-2
2.747473400E0,-6.138427258E-1,9.823469520E-1,8.055779338E-2
2.749884442E0,-6.175079346E-1,9.304234385E-1,8.055779338E-2
2.752295484E0,-6.278926134E-1,8.730021119E-1,8.055779338E-2
2.754706473E0,-6.376664639E-1,8.113048077E-1,7.994692773E-2
2.757117515E0,-6.523272395E-1,7.428879142E-1,8.055779338E-2
2.759528505E0,-6.669879556E-1,6.744710803E-1,7.994692773E-2
2.761939546E0,-6.859247684E-1,6.011673212E-1,7.994692773E-2
2.764350588E0,-7.042507529E-1,5.248091817E-1,8.177952468E-2
2.766761577E0,-7.262418866E-1,4.453967810E-1,8.177952468E-2
2.769172619E0,-7.518981695E-1,3.635408878E-1,8.177952468E-2
2.771583609E0,-7.763327956E-1,2.822958827E-1,8.177952468E-2
2.773994650E0,-8.050433993E-1,1.986074150E-1,8.239039034E-2
2.776405640E0,-8.361974955E-1,1.149189398E-1,8.239039034E-2
2.778816682E0,-8.691841960E-1,3.061959706E-2,8.300124854E-2
2.781227723E0,-9.027817845E-1,-5.306887627E-2,8.361211419E-2
2.783638713E0,-9.382119179E-1,-1.349247545E-1,8.361211419E-2
2.786049755E0,-9.748638272E-1,-2.161697745E-1,8.483384550E-2
2.788460744E0,-1.013959169E0,-2.961930633E-1,8.544471115E-2
2.790871786E0,-1.055498004E0,-3.737728894E-1,8.483384550E-2
2.793282775E0,-1.096425891E0,-4.464657903E-1,8.666644245E-2
2.795693817E0,-1.139186502E0,-5.173261166E-1,8.727730811E-2
2.798104859E0,-1.183168769E0,-5.851321220E-1,8.666644245E-2
2.800515848E0,-1.230205297E0,-6.480512023E-1,8.849903196E-2
2.802926890E0,-1.277241945E0,-7.079159021E-1,8.910989761E-2
2.805337880E0,-1.323667645E0,-7.616720200E-1,8.849903196E-2
2.807748921E0,-1.372536778E0,-8.117629290E-1,8.849903196E-2
2.810159963E0,-1.422016859E0,-8.563560843E-1,9.033162892E-2
2.812570952E0,-1.472107768E0,-8.954514265E-1,9.094249457E-2
2.814981994E0,-1.522809505E0,-9.308815598E-1,9.216422588E-2
2.817392984E0,-1.575954795E0,-9.602030516E-1,9.216422588E-2
2.819804025E0,-1.627267361E0,-9.834159613E-1,9.338594973E-2
2.822215015E0,-1.679190874E0,-9.999092817E-1,9.216422588E-2
2.824626057E0,-1.733557940E0,-1.013959169E0,9.399681538E-2
2.827037098E0,-1.786092281E0,-1.018846035E0,9.521854669E-2
2.829448088E0,-1.839848399E0,-1.019456983E0,9.521854669E-2
2.831859130E0,-1.894215345E0,-1.015791774E0,9.521854669E-2
2.834270119E0,-1.949193120E0,-1.004185319E0,9.582941234E-2
2.836681161E0,-2.003560066E0,-9.870811105E-1,9.521854669E-2
2.839092202E0,-2.057927132E0,-9.663116932E-1,9.521854669E-2
2.841503192E0,-2.112293959E0,-9.388228059E-1,9.705114365E-2
2.843914234E0,-2.168493509E0,-9.058361053E-1,9.705114365E-2
2.846325223E0,-2.222860575E0,-8.691841960E-1,9.705114365E-2
2.848736265E0,-2.276616573E0,-8.258128166E-1,9.582941234E-2
2.851147255E0,-2.329761982E0,-7.781654000E-1,9.521854669E-2
2.853558296E0,-2.384128809E0,-7.268527150E-1,9.338594973E-2
2.855969286E0,-2.439717531E0,-6.706531644E-1,9.399681538E-2
2.858380327E0,-2.491641045E0,-6.107884049E-1,9.277509153E-2
2.860791369E0,-2.544175386E0,-5.478693247E-1,9.155336022E-2
2.863202359E0,-2.596098900E0,-4.812850952E-1,8.910989761E-2
2.865613400E0,-2.644968033E0,-4.122573733E-1,8.972076327E-2
2.868024442E0,-2.695669889E0,-3.407861888E-1,8.666644245E-2
2.870435432E0,-2.744539022E0,-2.656498253E-1,8.177952468E-2
2.872846473E0,-2.792797327E0,-1.911243200E-1,7.994692773E-2
2.875257463E0,-2.839833975E0,-1.141553521E-1,7.811433077E-2
2.877668505E0,-2.884427071E0,-3.779725730E-2,7.444914430E-2
2.880079494E0,-2.929020166E0,3.978256881E-2,7.078395784E-2
2.882490536E0,-2.971169949E0,1.179732606E-1,6.711876392E-2
2.884901577E0,-3.011487007E0,1.931096315E-1,6.284271181E-2
2.887312567E0,-3.051804066E0,2.694677114E-1,5.856665969E-2
2.889723609E0,-3.089066744E0,3.439932168E-1,5.490147322E-2
2.892134598E0,-3.124496937E0,4.179078639E-1,5.062541738E-2
2.894545640E0,-3.159316301E0,4.875464439E-1,4.573849961E-2
2.896956630E0,-3.191081285E0,5.565741658E-1,3.962985426E-2
2.899367671E0,-3.222235441E0,6.219366789E-1,3.413207084E-2
2.901778713E0,-3.250946045E0,6.848557591E-1,2.924515121E-2
2.904189702E0,-3.279045820E0,7.428879142E-1,2.191477455E-2
2.906600744E0,-3.301647663E0,7.978657484E-1,1.641699113E-2
2.909011734E0,-3.324860573E0,8.510109782E-1,1.091920771E-2
2.911422775E0,-3.347462654E0,8.980475664E-1,6.032289471E-3
2.913833817E0,-3.365177631E0,9.401972294E-1,-6.872228696E-4
2.916244807E0,-3.382892847E0,9.805143476E-1,-8.017600514E-3
2.918655848E0,-3.396942616E0,1.017777085E0,-1.351538301E-2
2.921066838E0,-3.408549070E0,1.047098637E0,-1.962403022E-2
2.923477880E0,-3.421377182E0,1.072144032E0,-2.390008420E-2
2.925888869E0,-3.429318428E0,1.092302561E0,-3.061959706E-2
2.928299911E0,-3.434816360E0,1.108795881E0,-3.733910993E-2
2.930710952E0,-3.439092398E0,1.121013284E0,-4.344775900E-2
2.933121942E0,-3.441535711E0,1.125289321E0,-5.016727000E-2
2.935532984E0,-3.442146778E0,1.126510978E0,-5.566505343E-2
2.937943973E0,-3.441535711E0,1.122234941E0,-6.116283685E-2
2.940355015E0,-3.436038017E0,1.114904523E0,-6.727148592E-2
2.942766057E0,-3.430540323E0,1.100854635E0,-7.215840369E-2
2.945177046E0,-3.420766354E0,1.083139658E0,-7.521272451E-2
2.947588088E0,-3.410992622E0,1.060537577E0,-7.887791097E-2
2.949999077E0,-3.396942616E0,1.031826973E0,-8.376483619E-2
2.952410119E0,-3.382282019E0,9.982293844E-1,-8.804088831E-2
2.954821109E0,-3.365177631E0,9.634101391E-1,-9.170607477E-2
2.957232150E0,-3.344408274E0,9.249256253E-1,-9.353867173E-2
2.959643192E0,-3.322417259E0,8.803325295E-1,-9.598212689E-2
2.962054182E0,-3.299815178E0,8.302416205E-1,-9.842558950E-2
2.964465223E0,-3.274158955E0,7.789289355E-1,-9.964732081E-2
2.966876213E0,-3.246059179E0,7.245619893E-1,-1.008690447E-1
2.969287255E0,-3.214905024E0,6.677515507E-1,-1.014799103E-1
2.971698244E0,-3.185583353E0,6.072759628E-1,-1.014799103E-1
2.974109286E0,-3.150764227E0,5.455785990E-1,-1.008690447E-1
2.976520327E0,-3.114723206E0,4.838812649E-1,-1.014799103E-1
2.978931317E0,-3.078071356E0,4.172970057E-1,-1.002581790E-1
2.981342359E0,-3.038365126E0,3.507127464E-1,-9.659299254E-2
2.983753348E0,-2.998658895E0,2.829067409E-1,-9.598212689E-2
2.986164390E0,-2.957731009E0,2.157116234E-1,-9.476039559E-2
2.988575380E0,-2.913137674E0,1.491273642E-1,-9.170607477E-2
2.990986421E0,-2.869155407E0,8.071050793E-2,-8.926261961E-2
2.993397463E0,-2.821508169E0,1.412624773E-2,-8.559742570E-2
2.995808452E0,-2.774471521E0,-5.245801434E-2,-8.193223923E-2
2.998219494E0,-2.727434874E0,-1.196531355E-1,-7.765618712E-2
3.000630536E0,-2.676122189E0,-1.825722158E-1,-7.521272451E-2
3.003041525E0,-2.626031399E0,-2.467130125E-1,-7.093667239E-2
3.005452567E0,-2.572885990E0,-3.059668839E-1,-6.482802331E-2
3.007863557E0,-2.520962477E0,-3.646099269E-1,-6.055197120E-2
3.010274598E0,-2.465984821E0,-4.214203358E-1,-5.566505343E-2
3.012685588E0,-2.412228584E0,-4.757873118E-1,-4.955640435E-2
3.015096630E0,-2.355418205E0,-5.283216834E-1,-4.528035223E-2
3.017507671E0,-2.299218655E0,-5.784125924E-1,-4.039343446E-2
3.019918661E0,-2.241186619E0,-6.254491806E-1,-3.489565104E-2
3.022329702E0,-2.183154345E0,-6.694314480E-1,-2.817613818E-2
3.024740692E0,-2.123289585E0,-7.109702229E-1,-2.206749097E-2
3.027151734E0,-2.063424826E0,-7.470112443E-1,-1.840230078E-2
3.029562775E0,-2.001116753E0,-7.806088328E-1,-1.351538301E-2
3.031973765E0,-1.940030217E0,-8.135955334E-1,-7.406735327E-3
3.034384807E0,-1.877722025E0,-8.410844207E-1,-3.130682046E-3
3.036795796E0,-1.816024661E0,-8.661298752E-1,2.977965865E-3
3.039206838E0,-1.751883864E0,-8.875101805E-1,8.475748822E-3
3.041617827E0,-1.687743068E0,-9.058361053E-1,1.336266659E-2
3.044028869E0,-1.621769667E0,-9.192751646E-1,1.886045001E-2
3.046439859E0,-1.555796266E0,-9.296598434E-1,2.191477455E-2
3.048850900E0,-1.490433693E0,-9.363793731E-1,2.741255611E-2
3.051261942E0,-1.423238635E0,-9.388228059E-1,3.107774630E-2
3.053672932E0,-1.355432630E0,-9.382119179E-1,3.535379842E-2
3.056083973E0,-1.288237453E0,-9.345467687E-1,4.024071619E-2
3.058494963E0,-1.219820619E0,-9.266055226E-1,4.451677203E-2
3.060906005E0,-1.150792837E0,-9.143882394E-1,4.818195850E-2
3.063317046E0,-1.081765175E0,-9.009491801E-1,5.062541738E-2
3.065728036E0,-1.011515737E0,-8.814015388E-1,5.490147322E-2
3.068139077E0,-9.412662387E-1,-8.594104052E-1,5.978839099E-2
3.070550067E0,-8.716276884E-1,-8.343649507E-1,6.039925665E-2
3.072961109E0,-8.001564741E-1,-8.068760037E-1,6.284271181E-2
3.075372098E0,-7.305179238E-1,-7.745001912E-1,6.650790572E-2
3.077783140E0,-6.590467095E-1,-7.384591699E-1,6.895136088E-2
3.080194182E0,-5.900190473E-1,-7.018072605E-1,6.956222653E-2
3.082605171E0,-5.197695494E-1,-6.596575975E-1,7.200568914E-2
3.085016213E0,-4.495201111E-1,-6.181188226E-1,7.444914430E-2
3.087427202E0,-3.798815310E-1,-5.735256672E-1,7.628174126E-2
3.089838244E0,-3.108538091E-1,-5.270999670E-1,7.750347257E-2
3.092249286E0,-2.412152290E-1,-4.782307744E-1,7.933606207E-2
3.094660275E0,-1.734092385E-1,-4.269181192E-1,7.994692773E-2
3.097071317E0,-1.056032479E-1,-3.749946058E-1,8.177952468E-2
3.099482307E0,-4.024071619E-2,-3.218493760E-1,8.239039034E-2
3.101893348E0,2.695440874E-2,-2.668715417E-1,8.361211419E-2
3.104304338E0,9.231694043E-2,-2.118937224E-1,8.483384550E-2
3.106715380E0,1.570686102E-1,-1.575267613E-1,8.422297984E-2
3.109126421E0,2.218202800E-1,-1.019380614E-1,8.544471115E-2
3.111537411E0,2.835176289E-1,-4.634936526E-2,8.666644245E-2
3.113948452E0,3.470475674E-1,1.168278884E-2,8.849903196E-2
3.116359442E0,4.087449014E-1,6.604975462E-2,8.788817376E-2
3.118770484E0,4.686096311E-1,1.191949919E-1,8.910989761E-2
3.121181473E0,5.290852785E-1,1.753945500E-1,8.849903196E-2
3.123592515E0,5.877282619E-1,2.291506529E-1,9.094249457E-2
3.126003557E0,6.463713050E-1,2.816850245E-1,9.216422588E-2
3.128414546E0,7.025708556E-1,3.329976499E-1,9.277509153E-2
3.130825588E0,7.587704062E-1,3.830885887E-1,9.338594973E-2
3.133236577E0,8.143591285E-1,4.331794977E-1,9.460768104E-2
3.135647619E0,8.687260747E-1,4.808269441E-1,9.521854669E-2
3.138058609E0,9.212604165E-1,5.241983533E-1,9.766200930E-2
3.140469650E0,9.737948179E-1,5.694023371E-1,9.949459881E-2
3.142880692E0,1.025718331E0,6.109411120E-1,1.001054645E-1
3.145291682E0,1.077031016E0,6.524799466E-1,1.025489271E-1
3.147702723E0,1.125900149E0,6.897426844E-1,1.037706509E-1
3.150113765E0,1.175991058E0,7.251728773E-1,1.062141135E-1
3.152524755E0,1.223027706E0,7.569378018E-1,1.086575761E-1
3.154935796E0,1.271896839E0,7.899245024E-1,1.111010313E-1
3.157346786E0,1.317100763E0,8.161917329E-1,1.129336283E-1
3.159757827E0,1.362304807E0,8.418480158E-1,1.165988147E-1
3.162168817E0,1.406897902E0,8.650608659E-1,1.184314117E-1
3.164579859E0,1.449658513E0,8.827759624E-1,1.214857325E-1
3.166990900E0,1.491808176E0,8.986584544E-1,1.245400533E-1
3.169401890E0,1.535179496E0,9.114866257E-1,1.288161129E-1
3.171812932E0,1.574885726E0,9.206495881E-1,1.306487024E-1
3.174223921E0,1.613981128E0,9.267582297E-1,1.355356276E-1
3.176634963E0,1.653076410E0,9.285908341E-1,1.392008066E-1
3.179045952E0,1.690950036E0,9.285908341E-1,1.422551423E-1
3.181456994E0,1.726991057E0,9.249256253E-1,1.459203213E-1
3.183868036E0,1.761199474E0,9.169843793E-1,1.495855153E-1
3.186279025E0,1.794186234E0,9.059888124E-1,1.538615674E-1
3.188690067E0,1.827783823E0,8.901063204E-1,1.587484777E-1
3.191101057E0,1.857716203E0,8.723912835E-1,1.618028134E-1
3.193512098E0,1.887648582E0,8.491783738E-1,1.648571342E-1
3.195923140E0,1.916359186E0,8.253546953E-1,1.703549176E-1
3.198334130E0,1.943237185E0,7.972549200E-1,1.746309698E-1
3.200745171E0,1.968893528E0,7.648790479E-1,1.776852906E-1
3.203156161E0,1.992106438E0,7.294489145E-1,1.807396114E-1
3.205567202E0,2.015319347E0,6.915752888E-1,1.850156635E-1
3.207978192E0,2.036088705E0,6.518690586E-1,1.886808574E-1
3.210389234E0,2.054414511E0,6.097193956E-1,1.923460513E-1
3.212800275E0,2.073962212E0,5.651262999E-1,1.960112303E-1
3.215211265E0,2.090455532E0,5.180897117E-1,2.008981556E-1
3.217622307E0,2.106338024E0,4.692205191E-1,2.027307451E-1
3.220033296E0,2.119777203E0,4.172970057E-1,2.063959390E-1
3.222444338E0,2.131383657E0,3.641517758E-1,2.094502598E-1
3.224855327E0,2.142379045E0,3.097847998E-1,2.125045806E-1
3.227266369E0,2.151542187E0,2.560287118E-1,2.149480432E-1
3.229677411E0,2.158872604E0,1.986074150E-1,2.173915058E-1
3.232088400E0,2.164981127E0,1.430187225E-1,2.192240953E-1
3.234499442E0,2.170478821E0,8.620829135E-2,2.216675580E-1
3.236910432E0,2.172922373E0,2.878700197E-2,2.222784162E-1
3.239321473E0,2.175365925E0,-3.046688065E-2,2.247218788E-1
3.241732515E0,2.177198410E0,-8.849903196E-2,2.259436101E-1
3.244143505E0,2.178420067E0,-1.459203213E-1,2.265544683E-1
3.246554546E0,2.175976753E0,-2.039524764E-1,2.271653414E-1
3.248965536E0,2.173533201E0,-2.583194375E-1,2.277761996E-1
3.251376577E0,2.169257164E0,-3.151298761E-1,2.277761996E-1
3.253787567E0,2.163759470E0,-3.707185686E-1,2.277761996E-1
3.256198609E0,2.157650709E0,-4.250855148E-1,2.283870727E-1
3.258609650E0,2.149709463E0,-4.757873118E-1,2.277761996E-1
3.261020640E0,2.141768217E0,-5.283216834E-1,2.259436101E-1
3.263431682E0,2.129550934E0,-5.778017044E-1,2.259436101E-1
3.265842671E0,2.119777203E0,-6.254491806E-1,2.253327519E-1
3.268253713E0,2.107559919E0,-6.712640524E-1,2.235001475E-1
3.270664755E0,2.094120741E0,-7.146354318E-1,2.210566849E-1
3.273075744E0,2.079460144E0,-7.555633783E-1,2.186132371E-1
3.275486786E0,2.063577652E0,-7.946587205E-1,2.173915058E-1
3.277897775E0,2.047084332E0,-8.300888538E-1,2.155589163E-1
3.280308817E0,2.029369116E0,-8.630755544E-1,2.131154537E-1
3.282719807E0,2.009210587E0,-8.923971057E-1,2.094502598E-1
3.285130848E0,1.990273833E0,-9.174425602E-1,2.057850659E-1
3.287541890E0,1.970115304E0,-9.418771267E-1,2.033416182E-1
3.289952880E0,1.946291566E0,-9.620356560E-1,2.002872825E-1
3.292363921E0,1.923689604E0,-9.791398644E-1,1.984546930E-1
3.294774911E0,1.900476694E0,-9.901354313E-1,1.947895139E-1
3.297185952E0,1.875431180E0,-9.980766773E-1,1.892917305E-1
3.299596994E0,1.848553181E0,-1.002352715E0,1.856265366E-1
3.302007984E0,1.822896838E0,-1.004185319E0,1.819613427E-1
3.304419025E0,1.797240496E0,-1.000520110E0,1.789070219E-1
3.306830015E0,1.769751668E0,-9.919680357E-1,1.752418280E-1
3.309241057E0,1.740430117E0,-9.803616405E-1,1.715766490E-1
3.311652046E0,1.711719513E0,-9.650899768E-1,1.679114550E-1
3.314063088E0,1.683008790E0,-9.461531639E-1,1.630245447E-1
3.316474130E0,1.652465582E0,-9.217185974E-1,1.575267613E-1
3.318885119E0,1.621922374E0,-8.948405385E-1,1.550832987E-1
3.321296161E0,1.591989994E0,-8.649081588E-1,1.501963735E-1
3.323707150E0,1.562057614E0,-8.331431746E-1,1.477529258E-1
3.326118192E0,1.529681802E0,-7.940478325E-1,1.428660005E-1
3.328529234E0,1.499749422E0,-7.518981695E-1,1.392008066E-1
3.330940223E0,1.469206095E0,-7.091376781E-1,1.355356276E-1
3.333351265E0,1.438052058E0,-6.633228064E-1,1.306487024E-1
3.335762255E0,1.406287074E0,-6.168970466E-1,1.275943816E-1
3.338173296E0,1.375743866E0,-5.649735332E-1,1.245400533E-1
3.340584286E0,1.345200658E0,-5.112174749E-1,1.196531355E-1
3.342995327E0,1.314657331E0,-4.556287527E-1,1.165988147E-1
3.345406369E0,1.283503294E0,-4.006509483E-1,1.141553521E-1
3.347817359E0,1.254181743E0,-3.413970470E-1,1.111010313E-1
3.350228400E0,1.224249363E0,-2.833648920E-1,1.074358448E-1
3.352639390E0,1.194927812E0,-2.235001475E-1,1.043815166E-1
3.355050432E0,1.166217208E0,-1.636354029E-1,1.019380614E-1
3.357461421E0,1.138117433E0,-1.031597927E-1,9.949459881E-2
3.359872463E0,1.110017657E0,-4.329504073E-2,9.644027799E-2
3.362283505E0,1.083139658E0,1.779143699E-2,9.338594973E-2
3.364694494E0,1.057483315E0,7.765618712E-2,9.155336022E-2
3.367105536E0,1.030605197E0,1.356883347E-1,8.910989761E-2
3.369516525E0,1.006170630E0,1.931096315E-1,8.727730811E-2
3.371927567E0,9.829577804E-1,2.523635030E-1,8.483384550E-2
3.374338609E0,9.585232139E-1,3.055087626E-1,8.239039034E-2
3.376749598E0,9.346994758E-1,3.592648506E-1,8.177952468E-2
3.379160640E0,9.133192301E-1,4.093557596E-1,8.055779338E-2
3.381571630E0,8.931606412E-1,4.588358104E-1,7.933606207E-2
3.383982671E0,8.723912835E-1,5.040398240E-1,7.811433077E-2
3.386393661E0,8.534544706E-1,5.480220914E-1,7.750347257E-2
3.388804702E0,8.369610906E-1,5.883391500E-1,7.506000996E-2
3.391215692E0,8.198568821E-1,6.256018877E-1,7.506000996E-2
3.393626734E0,8.051961660E-1,6.585885882E-1,7.506000996E-2
3.396037775E0,7.899245024E-1,6.879100800E-1,7.444914430E-2
3.398448765E0,7.764855027E-1,7.135664225E-1,7.383827865E-2
3.400859807E0,7.661007643E-1,7.337249517E-1,7.322741300E-2
3.403270796E0,7.551051974E-1,7.514400482E-1,7.200568914E-2
3.405681838E0,7.459422350E-1,7.648790479E-1,7.200568914E-2
3.408092880E0,7.386118770E-1,7.728202939E-1,7.383827865E-2
3.410503869E0,7.331140637E-1,7.764855027E-1,7.383827865E-2
3.412914911E0,7.294489145E-1,7.752637863E-1,7.506000996E-2
3.415325900E0,7.263945937E-1,7.685442567E-1,7.506000996E-2
3.417736942E0,7.251728773E-1,7.575486898E-1,7.689260691E-2
3.420147984E0,7.270054221E-1,7.416661978E-1,7.872519642E-2
3.422558973E0,7.276163101E-1,7.215076685E-1,7.811433077E-2
3.424970015E0,7.306706309E-1,6.958513260E-1,8.116865903E-2
3.427381005E0,7.373901606E-1,6.665298343E-1,8.239039034E-2
3.429792046E0,7.441096306E-1,6.304888129E-1,8.361211419E-2
3.432203036E0,7.551051974E-1,5.932260752E-1,8.544471115E-2
3.434614077E0,7.630464435E-1,5.498546362E-1,8.727730811E-2
3.437025119E0,7.764855027E-1,5.028180480E-1,8.910989761E-2
3.439436109E0,7.917571068E-1,4.527271688E-1,9.216422588E-2
3.441847150E0,8.082504869E-1,3.989710510E-1,9.460768104E-2
3.444258140E0,8.259655237E-1,3.427715003E-1,9.582941234E-2
3.446669182E0,8.449023366E-1,2.822958827E-1,9.888373315E-2
3.449080223E0,8.662826419E-1,2.224311382E-1,1.019380614E-1
3.451491213E0,8.901063204E-1,1.582903415E-1,1.025489271E-1
3.453902255E0,9.127083421E-1,9.353867173E-2,1.056032479E-1
3.456313244E0,9.389755130E-1,2.756527252E-2,1.086575761E-1
3.458724286E0,9.664644599E-1,-4.024071619E-2,1.111010313E-1
3.461135275E0,9.957859516E-1,-1.080467105E-1,1.135444939E-1
3.463546317E0,1.026329160E0,-1.770744324E-1,1.159879491E-1
3.465957359E0,1.057483315E0,-2.461021543E-1,1.190422773E-1
3.468368348E0,1.091080904E0,-3.126864135E-1,1.202640012E-1
3.470779390E0,1.124678373E0,-3.804923892E-1,1.239291951E-1
3.473190380E0,1.161941171E0,-4.452440739E-1,1.263726503E-1
3.475601421E0,1.197371364E0,-5.099957585E-1,1.275943816E-1
3.478012463E0,1.237077594E0,-5.723039508E-1,1.294269711E-1
3.480423452E0,1.276172876E0,-6.327795386E-1,1.312595755E-1
3.482834494E0,1.317711711E0,-6.895899773E-1,1.318704337E-1
3.485245484E0,1.359861374E0,-7.451786995E-1,1.349247545E-1
3.487656525E0,1.402621865E0,-7.971021533E-1,1.349247545E-1
3.490067515E0,1.448436737E0,-8.459713459E-1,1.367573589E-1
3.492478557E0,1.491808176E0,-8.911753297E-1,1.385899484E-1
3.494889598E0,1.538233876E0,-9.327141643E-1,1.385899484E-1
3.497300588E0,1.585270405E0,-9.711986184E-1,1.398116797E-1
3.499711630E0,1.632917881E0,-1.005407095E0,1.392008066E-1
3.502122619E0,1.683619738E0,-1.034117699E0,1.392008066E-1
3.504533661E0,1.732488871E0,-1.058552265E0,1.398116797E-1
3.506944702E0,1.782579780E0,-1.081154346E0,1.373682171E-1
3.509355692E0,1.835114121E0,-1.095815063E0,1.379790753E-1
3.511766734E0,1.884594202E0,-1.106810570E0,1.373682171E-1
3.514177723E0,1.938350320E0,-1.111086726E0,1.373682171E-1
3.516588765E0,1.990273833E0,-1.112919211E0,1.349247545E-1
3.518999755E0,2.042808294E0,-1.108032346E0,1.337030232E-1
3.521410796E0,2.095953465E0,-1.098869324E0,1.306487024E-1
3.523821786E0,2.150320292E0,-1.084819436E0,1.312595755E-1
3.526232827E0,2.204076529E0,-1.065882683E0,1.282052398E-1
3.528643869E0,2.258443356E0,-1.042058945E0,1.269835234E-1
3.531054859E0,2.310977936E0,-1.014569998E0,1.245400533E-1
3.533465900E0,2.364733934E0,-9.809724689E-1,1.214857325E-1
3.535876890E0,2.419101000E0,-9.443206191E-1,1.196531355E-1
3.538287932E0,2.472246170E0,-9.040035009E-1,1.178205460E-1
3.540698973E0,2.522947788E0,-8.587995172E-1,1.153770834E-1
3.543109963E0,2.574871302E0,-8.093194962E-1,1.129336283E-1
3.545521005E0,2.626794815E0,-7.573959827E-1,1.111010313E-1
3.547931994E0,2.679329395E0,-7.011964321E-1,1.092684343E-1
3.550343036E0,2.728198528E0,-6.462185979E-1,1.056032479E-1
3.552754077E0,2.778289318E0,-5.839103460E-1,1.043815166E-1
3.555165067E0,2.824715137E0,-5.216021538E-1,1.037706509E-1
3.557576109E0,2.871751785E0,-4.592939615E-1,1.013271958E-1
3.559987098E0,2.919399023E0,-3.927097023E-1,9.949459881E-2
3.562398140E0,2.962159634E0,-3.285689056E-1,9.766200930E-2
3.564809182E0,3.004920244E0,-2.613737583E-1,9.705114365E-2
3.567220171E0,3.047069788E0,-1.935677826E-1,9.582941234E-2
3.569631213E0,3.088608742E0,-1.275943816E-1,9.582941234E-2
3.572042202E0,3.127704144E0,-6.162098423E-2,9.582941234E-2
3.574453244E0,3.164966822E0,3.130682046E-3,9.582941234E-2
3.576864234E0,3.201007843E0,6.604975462E-2,9.582941234E-2
3.579275275E0,3.237048864E0,1.289688200E-1,9.521854669E-2
3.581686317E0,3.269424677E0,1.882227063E-1,9.521854669E-2
3.584097307E0,3.302411318E0,2.474765927E-1,9.827287495E-2
3.586508348E0,3.331732750E0,3.018435538E-1,9.827287495E-2
3.588919338E0,3.359221697E0,3.549887836E-1,9.949459881E-2
3.591330380E0,3.384878159E0,4.050796926E-1,1.019380614E-1
3.593741369E0,3.411145210E0,4.515054226E-1,1.037706509E-1
3.596152411E0,3.433136463E0,4.960985482E-1,1.068249792E-1
3.598563400E0,3.454516649E0,5.358047485E-1,1.098793000E-1
3.600974442E0,3.475286007E0,5.712349415E-1,1.117118970E-1
3.603385484E0,3.492390394E0,6.036107540E-1,1.153770834E-1
3.605796473E0,3.508272886E0,6.323214173E-1,1.184314117E-1
3.608207515E0,3.521711826E0,6.573668718E-1,1.220965981E-1
3.610618557E0,3.534539938E0,6.769145131E-1,1.269835234E-1
3.613029546E0,3.544313908E0,6.909644008E-1,1.300378442E-1
3.615440588E0,3.551033258E0,7.007382512E-1,1.343138963E-1
3.617851577E0,3.558363676E0,7.080686092E-1,1.379790753E-1
3.620262619E0,3.563250542E0,7.092903852E-1,1.422551423E-1
3.622673609E0,3.563861370E0,7.062360644E-1,1.465311944E-1
3.625084650E0,3.564472437E0,6.989056468E-1,1.489746422E-1
3.627495692E0,3.562639713E0,6.866883636E-1,1.544724256E-1
3.629906682E0,3.557752848E0,6.701950431E-1,1.581376195E-1
3.632317723E0,3.550422430E0,6.482039094E-1,1.611919403E-1
3.634728713E0,3.542481184E0,6.237692833E-1,1.654679924E-1
3.637139755E0,3.532096624E0,5.920043588E-1,1.697440445E-1
3.639550744E0,3.518046618E0,5.584067702E-1,1.727983803E-1
3.641961786E0,3.503996849E0,5.211440325E-1,1.764635593E-1
3.644372827E0,3.488725185E0,4.820486605E-1,1.801287532E-1
3.646783817E0,3.471009970E0,4.368446767E-1,1.825722158E-1
3.649194859E0,3.449629784E0,3.910298049E-1,1.850156635E-1
3.651605848E0,3.425806046E0,3.421606421E-1,1.874591261E-1
3.654016890E0,3.402593136E0,2.902371287E-1,1.892917305E-1
3.656427932E0,3.376326084E0,2.346484363E-1,1.905134469E-1
3.658838921E0,3.347615242E0,1.815031916E-1,1.923460513E-1
3.661249963E0,3.318293810E0,1.240819097E-1,1.923460513E-1
3.663660952E0,3.288361549E0,6.604975462E-2,1.935677826E-1
3.666071994E0,3.254153013E0,7.406735327E-3,1.935677826E-1
3.668482984E0,3.219333649E0,-5.001455545E-2,1.935677826E-1
3.670894025E0,3.185125351E0,-1.098793000E-1,1.935677826E-1
3.673305067E0,3.146029949E0,-1.691331863E-1,1.941786408E-1
3.675716057E0,3.108767271E0,-2.265544683E-1,1.917351782E-1
3.678127098E0,3.069061041E0,-2.839757502E-1,1.917351782E-1
3.680538088E0,3.026911259E0,-3.407861888E-1,1.892917305E-1
3.682949130E0,2.986594200E0,-3.951531649E-1,1.868482679E-1
3.685360171E0,2.942611933E0,-4.489092529E-1,1.844048053E-1
3.687771161E0,2.898018837E0,-5.014436245E-1,1.831830740E-1
3.690182202E0,2.854647398E0,-5.503128171E-1,1.801287532E-1
3.692593192E0,2.806389093E0,-5.991820097E-1,1.758527011E-1
3.695004234E0,2.758741617E0,-6.449968219E-1,1.721875072E-1
3.697415223E0,2.709261656E0,-6.871465445E-1,1.691331863E-1
3.699826265E0,2.660392523E0,-7.274636030E-1,1.648571342E-1
3.702237307E0,2.612134218E0,-7.653372288E-1,1.611919403E-1
3.704648296E0,2.560210705E0,-8.025999665E-1,1.575267613E-1
3.707059338E0,2.505843639E0,-8.337540627E-1,1.526398361E-1
3.709470327E0,2.452698469E0,-8.606321216E-1,1.477529258E-1
3.711881369E0,2.399553299E0,-8.862884641E-1,1.434768587E-1
3.714292359E0,2.343964577E0,-9.095013142E-1,1.392008066E-1
3.716703400E0,2.288375854E0,-9.266055226E-1,1.337030232E-1
3.719114442E0,2.231565475E0,-9.418771267E-1,1.282052398E-1
3.721525432E0,2.174144030E0,-9.540944099E-1,1.233183295E-1
3.723936473E0,2.116722822E0,-9.608139396E-1,1.172096804E-1
3.726347463E0,2.058690548E0,-9.650899768E-1,1.135444939E-1
3.728758505E0,2.000047684E0,-9.650899768E-1,1.080467105E-1
3.731169494E0,1.940793753E0,-9.620356560E-1,1.025489271E-1
3.733580536E0,1.880928993E0,-9.559270144E-1,9.705114365E-2
3.735991577E0,1.820453405E0,-9.437097311E-1,9.155336022E-2
3.738402567E0,1.758756042E0,-9.302706718E-1,8.666644245E-2
3.740813609E0,1.699502230E0,-9.119447470E-1,8.055779338E-2
3.743224650E0,1.637804866E0,-8.899536133E-1,7.628174126E-2
3.745635640E0,1.576107502E0,-8.661298752E-1,7.078395784E-2
3.748046682E0,1.514410138E0,-8.374192715E-1,6.650790572E-2
3.750457671E0,1.454545379E0,-8.068760037E-1,6.101011857E-2
3.752868713E0,1.393458962E0,-7.738893032E-1,5.673406646E-2
3.755279702E0,1.332372427E0,-7.384591699E-1,5.062541738E-2
3.757690744E0,1.272507668E0,-6.987529397E-1,4.757109284E-2
3.760101734E0,1.213253856E0,-6.572141647E-1,4.207331315E-2
3.762512775E0,1.152778149E0,-6.144536138E-1,3.840812296E-2
3.764923817E0,1.093524337E0,-5.698604584E-1,3.291033953E-2
3.767334807E0,1.034270406E0,-5.228238702E-1,2.924515121E-2
3.769745848E0,9.768491387E-1,-4.757873118E-1,2.496909723E-2
3.772156838E0,9.200387001E-1,-4.269181192E-1,2.069304511E-2
3.774567880E0,8.626174331E-1,-3.762163520E-1,1.641699113E-2
3.776978921E0,8.064178824E-1,-3.242928386E-1,1.153007243E-2
3.779389911E0,7.514400482E-1,-2.748127878E-1,1.030834299E-2
3.781800952E0,6.982948184E-1,-2.228892893E-1,6.032289471E-3
3.784211942E0,6.427060962E-1,-1.721875072E-1,1.756236190E-3
3.786622984E0,5.907825828E-1,-1.208748668E-1,-2.519817324E-3
3.789033973E0,5.388590693E-1,-6.956222653E-2,-4.352411721E-3
3.791445015E0,4.881573021E-1,-1.947131567E-2,-8.017600514E-3
3.793856057E0,4.380663931E-1,2.878700197E-2,-1.168278884E-2
3.796267046E0,3.885863721E-1,7.948877662E-2,-1.412624773E-2
3.798678088E0,3.403280377E-1,1.271362305E-1,-1.779143699E-2
3.801089077E0,2.932914495E-1,1.735619605E-1,-2.023489587E-2
3.803500119E0,2.462548614E-1,2.205985487E-1,-2.328922041E-2
3.805911161E0,2.016617358E-1,2.639699280E-1,-2.634354308E-2
3.808322150E0,1.564577371E-1,3.079521954E-1,-2.756527252E-2
3.810733192E0,1.112537459E-1,3.488801420E-1,-3.123046272E-2
3.813144182E0,6.849320978E-2,3.879754841E-1,-3.428478539E-2
3.815555223E0,2.634354308E-2,4.258491099E-1,-3.672824427E-2
3.817966213E0,-1.275180187E-2,4.618901312E-1,-3.856083751E-2
3.820377255E0,-5.429060757E-2,4.954876900E-1,-4.100430012E-2
3.822788296E0,-9.521854669E-2,5.254200697E-1,-4.466948658E-2
3.825199286E0,-1.330921650E-1,5.553524494E-1,-4.528035223E-2
3.827610327E0,-1.709657758E-1,5.810087919E-1,-4.772381112E-2
3.830021317E0,-2.070067972E-1,6.066650748E-1,-5.077813566E-2
3.832432359E0,-2.436586916E-1,6.280453801E-1,-5.261072889E-2
3.834843400E0,-2.796997130E-1,6.445387006E-1,-5.444332212E-2
3.837254390E0,-3.145190179E-1,6.610320210E-1,-5.505418777E-2
3.839665432E0,-3.468948305E-1,6.738601923E-1,-5.749764666E-2
3.842076421E0,-3.798815310E-1,6.842449307E-1,-6.177370250E-2
3.844487463E0,-4.110356271E-1,6.921861768E-1,-6.238456443E-2
3.846898452E0,-4.421897531E-1,6.982948184E-1,-6.421715766E-2
3.849309494E0,-4.733438492E-1,6.989056468E-1,-6.666062027E-2
3.851720536E0,-5.002219081E-1,6.976839304E-1,-6.788235158E-2
3.854131525E0,-5.277107954E-1,6.946296096E-1,-6.910407543E-2
3.856542567E0,-5.558105707E-1,6.866883636E-1,-7.093667239E-2
3.858953557E0,-5.796343088E-1,6.769145131E-1,-7.215840369E-2
3.861364598E0,-6.034580469E-1,6.646972299E-1,-7.399099320E-2
3.863775640E0,-6.272817850E-1,6.494256258E-1,-7.521272451E-2
3.866186630E0,-6.492729187E-1,6.310997009E-1,-7.582359016E-2
3.868597671E0,-6.706531644E-1,6.097193956E-1,-7.582359016E-2
3.871008661E0,-6.914225817E-1,5.871174335E-1,-7.765618712E-2
3.873419702E0,-7.097485065E-1,5.620719790E-1,-7.765618712E-2
3.875830692E0,-7.268527150E-1,5.351939201E-1,-7.948877662E-2
3.878241734E0,-7.427352071E-1,5.064832568E-1,-7.887791097E-2
3.880652775E0,-7.592285872E-1,4.734965563E-1,-8.071050793E-2
3.883063765E0,-7.751110196E-1,4.398989975E-1,-8.132137358E-2
3.885474807E0,-7.879391909E-1,4.056905806E-1,-8.193223923E-2
3.887885796E0,-7.995456457E-1,3.690386713E-1,-8.193223923E-2
3.890296838E0,-8.123738170E-1,3.305542171E-1,-8.132137358E-2
3.892707827E0,-8.215367794E-1,2.920697331E-1,-8.071050793E-2
3.895118869E0,-8.300888538E-1,2.517526448E-1,-8.071050793E-2
3.897529911E0,-8.380300999E-1,2.108247131E-1,-8.009964228E-2
3.899940900E0,-8.453605175E-1,1.698967665E-1,-8.009964228E-2
3.902351942E0,-8.526908755E-1,1.283579618E-1,-7.948877662E-2
3.904762932E0,-8.587995172E-1,8.743002266E-2,-7.887791097E-2
3.907173973E0,-8.630755544E-1,4.405862093E-2,-7.887791097E-2
3.909584963E0,-8.667407632E-1,1.908952487E-3,-7.765618712E-2
3.911996005E0,-8.697950840E-1,-4.085158184E-2,-7.643445581E-2
3.914407046E0,-8.710168004E-1,-8.239039034E-2,-7.582359016E-2
3.916818036E0,-8.734602928E-1,-1.239291951E-1,-7.521272451E-2
3.919229077E0,-8.740711212E-1,-1.654679924E-1,-7.399099320E-2
3.921640119E0,-8.728494048E-1,-2.051742077E-1,-7.154753804E-2
3.924051109E0,-8.722385764E-1,-2.454912812E-1,-7.093667239E-2
3.926462150E0,-8.710168004E-1,-2.845866382E-1,-7.032580674E-2
3.928873140E0,-8.685733676E-1,-3.206276596E-1,-6.849320978E-2
3.931284182E0,-8.642973304E-1,-3.566686809E-1,-6.788235158E-2
3.933695171E0,-8.618538380E-1,-3.927097023E-1,-6.604975462E-2
3.936106213E0,-8.575778008E-1,-4.269181192E-1,-6.360629201E-2
3.938517255E0,-8.526908755E-1,-4.592939615E-1,-6.299543381E-2
3.940928244E0,-8.478039503E-1,-4.898371994E-1,-6.238456443E-2
3.943339286E0,-8.410844207E-1,-5.179370046E-1,-6.055197120E-2
3.945750275E0,-8.355866671E-1,-5.460367799E-1,-5.871937796E-2
3.948161317E0,-8.276454210E-1,-5.698604584E-1,-5.810851231E-2
3.950572307E0,-8.215367794E-1,-5.924624801E-1,-5.627591908E-2
3.952983348E0,-8.123738170E-1,-6.132318974E-1,-5.444332212E-2
3.955394390E0,-8.032108545E-1,-6.315578222E-1,-5.261072889E-2
3.957805380E0,-7.946587205E-1,-6.486620307E-1,-5.138900131E-2
3.960216421E0,-7.836631536E-1,-6.627119184E-1,-5.016727000E-2
3.962627411E0,-7.757219076E-1,-6.737074852E-1,-4.894553870E-2
3.965038452E0,-7.647263408E-1,-6.804270148E-1,-4.711294547E-2
3.967449494E0,-7.543416619E-1,-6.865356565E-1,-4.589121789E-2
3.969860484E0,-7.439569235E-1,-6.889790893E-1,-4.589121789E-2
3.972271525E0,-7.317396402E-1,-6.902008653E-1,-4.344775900E-2
3.974682515E0,-7.213549614E-1,-6.871465445E-1,-4.344775900E-2
3.977093557E0,-7.091376781E-1,-6.816487312E-1,-4.222602770E-2
3.979504546E0,-6.981421113E-1,-6.724857688E-1,-4.100430012E-2
3.981915588E0,-6.859247684E-1,-6.621010900E-1,-3.978256881E-2
3.984326630E0,-6.749292016E-1,-6.498837471E-1,-3.978256881E-2
3.986737619E0,-6.621010900E-1,-6.333904266E-1,-3.856083751E-2
3.989148661E0,-6.492729187E-1,-6.132318974E-1,-3.856083751E-2
3.991559650E0,-6.370556355E-1,-5.906298757E-1,-3.733910993E-2
3.993970692E0,-6.248382926E-1,-5.668061376E-1,-3.672824427E-2
3.996381682E0,-6.138427258E-1,-5.411498547E-1,-3.733910993E-2
3.998792723E0,-6.016254425E-1,-5.112174749E-1,-3.611737862E-2
4.001203765E0,-5.900190473E-1,-4.806742370E-1,-3.733910993E-2
4.003614755E0,-5.784125924E-1,-4.470766485E-1,-3.672824427E-2
4.006025796E0,-5.692496300E-1,-4.116465151E-1,-3.672824427E-2
4.008436786E0,-5.576431751E-1,-3.749946058E-1,-3.733910993E-2
4.010847827E0,-5.448150039E-1,-3.358992636E-1,-3.794997558E-2
4.013258817E0,-5.362629294E-1,-2.949713171E-1,-3.733910993E-2
4.015669859E0,-5.252673626E-1,-2.522107959E-1,-3.856083751E-2
4.018080900E0,-5.161044002E-1,-2.100611329E-1,-3.917170316E-2
4.020491890E0,-5.063305497E-1,-1.648571342E-1,-3.978256881E-2
4.022902932E0,-4.965566993E-1,-1.190422773E-1,-3.978256881E-2
4.025313921E0,-4.880045950E-1,-7.322741300E-2,-4.100430012E-2
4.027724963E0,-4.818959534E-1,-2.619082667E-2,-4.161516204E-2
4.030136005E0,-4.739547074E-1,2.145662531E-2,-4.222602770E-2
4.032546994E0,-4.660134614E-1,6.910407543E-2,-4.344775900E-2
4.034958036E0,-4.592939615E-1,1.173623949E-1,-4.466948658E-2
4.037369025E0,-4.544070363E-1,1.656207144E-1,-4.528035223E-2
4.039780067E0,-4.476875365E-1,2.132681608E-1,-4.589121789E-2
4.042191057E0,-4.434114695E-1,2.603047490E-1,-4.772381112E-2
4.044602098E0,-4.403571486E-1,3.055087626E-1,-4.894553870E-2
4.047013140E0,-4.366919696E-1,3.525453210E-1,-4.955640435E-2
4.049424130E0,-4.336376488E-1,3.971384764E-1,-5.138900131E-2
4.051835171E0,-4.324159026E-1,4.411207438E-1,-5.444332212E-2
4.054246161E0,-4.324159026E-1,4.832704067E-1,-5.383246019E-2
4.056657202E0,-4.311941862E-1,5.254200697E-1,-5.566505343E-2
4.059068244E0,-4.318050444E-1,5.639045238E-1,-5.688678101E-2
4.061479234E0,-4.336376488E-1,6.017781496E-1,-5.871937796E-2
4.063890275E0,-4.360810816E-1,6.372083426E-1,-6.055197120E-2
4.066301265E0,-4.391354322E-1,6.720275879E-1,-6.177370250E-2
4.068712307E0,-4.415788651E-1,7.044034600E-1,-6.299543381E-2
4.071123296E0,-4.489092529E-1,7.312815189E-1,-6.482802331E-2
4.073534338E0,-4.550178945E-1,7.581595778E-1,-6.482802331E-2
4.075945380E0,-4.629591405E-1,7.807615399E-1,-6.666062027E-2
4.078356369E0,-4.709003866E-1,8.021417856E-1,-6.788235158E-2
4.080767411E0,-4.812850952E-1,8.198568821E-1,-7.032580674E-2
4.083178400E0,-4.910589159E-1,8.332959414E-1,-7.093667239E-2
4.085589442E0,-5.020545125E-1,8.455132246E-1,-7.215840369E-2
4.088000484E0,-5.136609077E-1,8.546761870E-1,-7.338013500E-2
4.090411473E0,-5.295433998E-1,8.583413959E-1,-7.582359016E-2
4.092822515E0,-5.435932875E-1,8.595631123E-1,-7.704532146E-2
4.095233505E0,-5.600866675E-1,8.583413959E-1,-7.826705277E-2
4.097644546E0,-5.759691000E-1,8.534544706E-1,-7.887791097E-2
4.100055536E0,-5.949059129E-1,8.436806202E-1,-8.071050793E-2
4.102466577E0,-6.144536138E-1,8.314633369E-1,-8.193223923E-2
4.104877619E0,-6.346121430E-1,8.174134493E-1,-8.376483619E-2
4.107288609E0,-6.559923887E-1,7.978657484E-1,-8.437569439E-2
4.109699650E0,-6.792052984E-1,7.770963311E-1,-8.620829135E-2
4.112110640E0,-7.030289769E-1,7.514400482E-1,-8.743002266E-2
4.114521682E0,-7.274636030E-1,7.227293849E-1,-8.804088831E-2
4.116932671E0,-7.537307739E-1,6.927970052E-1,-8.926261961E-2
4.119343713E0,-7.824414372E-1,6.579777002E-1,-9.170607477E-2
4.121754755E0,-8.099303246E-1,6.213258505E-1,-9.109520912E-2
4.124165744E0,-8.410844207E-1,5.828413367E-1,-9.292780608E-2
4.126576786E0,-8.691841960E-1,5.449677706E-1,-9.476039559E-2
4.128987775E0,-9.009491801E-1,5.009855032E-1,-9.537126124E-2
4.131398817E0,-9.339358807E-1,4.551706314E-1,-9.659299254E-2
4.133809859E0,-9.675334692E-1,4.087449014E-1,-9.781472385E-2
4.136220848E0,-1.001131058E0,3.623191714E-1,-9.903645515E-2
4.138631890E0,-1.036561131E0,3.128391206E-1,-9.903645515E-2
4.141042880E0,-1.072602153E0,2.645808160E-1,-1.002581790E-1
4.143453921E0,-1.109864950E0,2.144898921E-1,-1.020907760E-1
4.145864963E0,-1.148960233E0,1.619555205E-1,-1.020907760E-1
4.148275952E0,-1.187444806E0,1.124754772E-1,-1.014799103E-1
4.150686994E0,-1.227151036E0,6.177370250E-2,-1.027016416E-1
4.153097984E0,-1.268689752E0,1.046105940E-2,-1.033125073E-1
4.155509025E0,-1.310228586E0,-3.962985426E-2,-1.033125073E-1
4.157920015E0,-1.351156592E0,-8.605557680E-2,-1.039233729E-1
4.160331057E0,-1.395138741E0,-1.379790753E-1,-1.051450968E-1
4.162742098E0,-1.438510180E0,-1.844048053E-1,-1.057559624E-1
4.165153088E0,-1.484325051E0,-2.296088040E-1,-1.057559624E-1
4.167564130E0,-1.528307319E0,-2.742019296E-1,-1.063668281E-1
4.169975119E0,-1.574122190E0,-3.157407343E-1,-1.069776937E-1
4.172386161E0,-1.620547891E0,-3.554469347E-1,-1.081994250E-1
4.174797150E0,-1.667584538E0,-3.939314187E-1,-1.094211563E-1
4.177208192E0,-1.714621067E0,-4.287507236E-1,-1.088102907E-1
4.179619182E0,-1.762268543E0,-4.599048197E-1,-1.069776937E-1
4.182030223E0,-1.810526848E0,-4.880045950E-1,-1.075885594E-1
4.184441265E0,-1.860617757E0,-5.154935122E-1,-1.075885594E-1
4.186852255E0,-1.908876061E0,-5.393172503E-1,-1.075885594E-1
4.189263296E0,-1.958966970E0,-5.576431751E-1,-1.081994250E-1
4.191674338E0,-2.007836103E0,-5.735256672E-1,-1.088102907E-1
4.194085327E0,-2.056094408E0,-5.839103460E-1,-1.075885594E-1
4.196496369E0,-2.106796265E0,-5.955168009E-1,-1.081994250E-1
4.198907359E0,-2.156887293E0,-5.985711217E-1,-1.081994250E-1
4.201318400E0,-2.208199739E0,-6.004037261E-1,-1.088102907E-1
4.203729390E0,-2.258290768E0,-5.985711217E-1,-1.075885594E-1
4.206140432E0,-2.307159901E0,-5.900190473E-1,-1.081994250E-1
4.208551473E0,-2.356029034E0,-5.808560252E-1,-1.088102907E-1
4.210962463E0,-2.405509233E0,-5.649735332E-1,-1.100320220E-1
4.213373505E0,-2.454378366E0,-5.466476083E-1,-1.088102907E-1
4.215784494E0,-2.502025843E0,-5.246564746E-1,-1.094211563E-1
4.218195536E0,-2.550894976E0,-5.014436245E-1,-1.106428802E-1
4.220606577E0,-2.598542452E0,-4.702895284E-1,-1.112537459E-1
4.223017567E0,-2.644357204E0,-4.379136860E-1,-1.106428802E-1
4.225428609E0,-2.690172195E0,-4.018726647E-1,-1.124754772E-1
4.227839598E0,-2.735986948E0,-3.646099269E-1,-1.143080741E-1
4.230250640E0,-2.779969215E0,-3.242928386E-1,-1.155297980E-1
4.232661630E0,-2.822118998E0,-2.790888548E-1,-1.161406636E-1
4.235072671E0,-2.867322922E0,-2.338848561E-1,-1.185841262E-1
4.237483713E0,-2.908861637E0,-1.868482679E-1,-1.198058575E-1
4.239894702E0,-2.948567867E0,-1.367573589E-1,-1.210275814E-1
4.242305744E0,-2.988274097E0,-8.605557680E-2,-1.240819097E-1
4.244716734E0,-3.026147842E0,-3.352120519E-2,-1.259144992E-1
4.247127775E0,-3.064632177E0,1.962403022E-2,-1.289688200E-1
4.249538817E0,-3.100062370E0,7.338013500E-2,-1.314122826E-1
4.251949807E0,-3.133049011E0,1.295796931E-1,-1.344666034E-1
4.254360848E0,-3.167868376E0,1.833357960E-1,-1.381317973E-1
4.256771838E0,-3.200244188E0,2.377027571E-1,-1.417969912E-1
4.259182880E0,-3.230176687E0,2.914588451E-1,-1.448513120E-1
4.261593921E0,-3.258887291E0,3.446041048E-1,-1.491273642E-1
4.264004911E0,-3.285765409E0,3.959167302E-1,-1.521816850E-1
4.266415952E0,-3.310810804E0,4.472293854E-1,-1.564577371E-1
4.268826942E0,-3.336467028E0,4.954876900E-1,-1.607337892E-1
4.271237984E0,-3.358458281E0,5.431351662E-1,-1.637881249E-1
4.273648973E0,-3.379838467E0,5.889499784E-1,-1.692859083E-1
4.276060015E0,-3.399996996E0,6.317105293E-1,-1.735619605E-1
4.278471005E0,-3.418323040E0,6.726384759E-1,-1.796706021E-1
4.280882046E0,-3.434816360E0,7.080686092E-1,-1.845575273E-1
4.283293088E0,-3.448866129E0,7.422770858E-1,-1.894444376E-1
4.285704077E0,-3.461083412E0,7.740420103E-1,-1.955530941E-1
4.288115119E0,-3.472689867E0,8.027526736E-1,-2.010508776E-1
4.290526109E0,-3.481241941E0,8.265764117E-1,-2.047160566E-1
4.292937150E0,-3.487961531E0,8.473458290E-1,-2.083812505E-1
4.295348192E0,-3.494070292E0,8.638391495E-1,-2.132681608E-1
4.297759182E0,-3.497735262E0,8.778890371E-1,-2.187659442E-1
4.300170223E0,-3.498957157E0,8.876628876E-1,-2.236528695E-1
4.302581213E0,-3.500178814E0,8.925498128E-1,-2.291506529E-1
4.304992255E0,-3.497735262E0,8.937715292E-1,-2.328158319E-1
4.307403244E0,-3.494070292E0,8.894954920E-1,-2.370918989E-1
4.309814286E0,-3.489794016E0,8.839976788E-1,-2.407570779E-1
4.312225327E0,-3.481852770E0,8.730021119E-1,-2.438113987E-1
4.314636317E0,-3.472689867E0,8.571196198E-1,-2.468657345E-1
4.317047359E0,-3.461083412E0,8.369610906E-1,-2.517526448E-1
4.319458348E0,-3.448255301E0,8.143591285E-1,-2.548069656E-1
4.321869390E0,-3.433594465E0,7.868701816E-1,-2.572504282E-1
4.324280432E0,-3.416490316E0,7.581595778E-1,-2.596938908E-1
4.326691421E0,-3.398164511E0,7.245619893E-1,-2.615264952E-1
4.329102463E0,-3.379227638E0,6.885209680E-1,-2.645808160E-1
4.331513452E0,-3.359069109E0,6.469821334E-1,-2.658025324E-1
4.333924494E0,-3.335245371E0,6.054433584E-1,-2.664133906E-1
4.336335536E0,-3.310199976E0,5.614610910E-1,-2.670242786E-1
4.338746525E0,-3.283321857E0,5.150353909E-1,-2.676351368E-1
4.341157567E0,-3.255832911E0,4.655553102E-1,-2.664133906E-1
4.343568557E0,-3.226511478E0,4.148535430E-1,-2.664133906E-1
4.345979598E0,-3.197189808E0,3.629300296E-1,-2.658025324E-1
4.348390588E0,-3.164203167E0,3.110065162E-1,-2.645808160E-1
4.350801630E0,-3.133049011E0,2.584721744E-1,-2.639699280E-1
4.353212671E0,-3.097619057E0,2.047160566E-1,-2.627482116E-1
4.355623661E0,-3.062188864E0,1.497382224E-1,-2.603047490E-1
4.358034702E0,-3.025536776E0,9.659299254E-2,-2.584721744E-1
4.360445692E0,-2.990106821E0,4.405862093E-2,-2.560287118E-1
4.362856734E0,-2.949789762E0,-7.254019380E-3,-2.529743910E-1
4.365267723E0,-2.911305189E0,-5.978839099E-2,-2.499200553E-1
4.367678765E0,-2.870377302E0,-1.092684343E-1,-2.456440032E-1
4.370089807E0,-2.828838348E0,-1.587484777E-1,-2.432005405E-1
4.372500796E0,-2.787910461E0,-2.057850659E-1,-2.401462197E-1
4.374911838E0,-2.745149851E0,-2.503781915E-1,-2.364810258E-1
4.377322827E0,-2.700556755E0,-2.943604589E-1,-2.328158319E-1
4.379733869E0,-2.657185316E0,-3.352884054E-1,-2.285397798E-1
4.382144911E0,-2.611370564E0,-3.731620312E-1,-2.242637277E-1
4.384555900E0,-2.566166639E0,-4.098139107E-1,-2.212094069E-1
4.386966942E0,-2.518519163E0,-4.409680068E-1,-2.157116234E-1
4.389377932E0,-2.472704172E0,-4.702895284E-1,-2.114355713E-1
4.391788973E0,-2.425056934E0,-4.977784455E-1,-2.071595192E-1
4.394199963E0,-2.377409458E0,-5.216021538E-1,-2.047160566E-1
4.396611005E0,-2.329761982E0,-5.417606831E-1,-1.998291463E-1
4.399022046E0,-2.282725334E0,-5.588648915E-1,-1.949422210E-1
4.401433036E0,-2.232023478E0,-5.716930628E-1,-1.906661689E-1
4.403844077E0,-2.183765173E0,-5.814669132E-1,-1.863901168E-1
4.406255067E0,-2.135506868E0,-5.894081593E-1,-1.827249229E-1
4.408666109E0,-2.084194183E0,-5.906298757E-1,-1.790597439E-1
4.411077098E0,-2.034714222E0,-5.894081593E-1,-1.747836918E-1
4.413488140E0,-1.985234141E0,-5.851321220E-1,-1.729510874E-1
4.415899182E0,-1.936365008E0,-5.765799880E-1,-1.686750352E-1
4.418310171E0,-1.886274099E0,-5.637518167E-1,-1.662315726E-1
4.420721213E0,-1.835572362E0,-5.490911007E-1,-1.625663936E-1
4.423132202E0,-1.787313938E0,-5.313760042E-1,-1.601229310E-1
4.425543244E0,-1.738444805E0,-5.106065869E-1,-1.576794684E-1
4.427954286E0,-1.688353896E0,-4.831176698E-1,-1.552360058E-1
4.430365275E0,-1.640706420E0,-4.550178945E-1,-1.515708268E-1
4.432776317E0,-1.593669891E0,-4.244746566E-1,-1.497382224E-1
4.435187307E0,-1.547244072E0,-3.914879560E-1,-1.485165060E-1
4.437598348E0,-1.498985767E0,-3.548360765E-1,-1.466839015E-1
4.440009338E0,-1.453170896E0,-3.181841969E-1,-1.448513120E-1
4.442420380E0,-1.407356143E0,-2.784779668E-1,-1.448513120E-1
4.444831421E0,-1.363984704E0,-2.369391769E-1,-1.424078494E-1
4.447242411E0,-1.318780661E0,-1.935677826E-1,-1.417969912E-1
4.449653452E0,-1.276020169E0,-1.495855153E-1,-1.411861181E-1
4.452064442E0,-1.232648730E0,-1.049923822E-1,-1.405752599E-1
4.454475484E0,-1.190499067E0,-5.795579776E-2,-1.393535286E-1
4.456886525E0,-1.152014613E0,-1.397353224E-2,-1.375209391E-1
4.459297515E0,-1.111697555E0,3.306305781E-2,-1.375209391E-1
4.461708557E0,-1.072602153E0,8.193223923E-2,-1.387426704E-1
4.464119546E0,-1.033506870E0,1.271362305E-1,-1.387426704E-1
4.466530588E0,-9.974658489E-1,1.729510874E-1,-1.381317973E-1
4.468941577E0,-9.626465440E-1,2.181550860E-1,-1.387426704E-1
4.471352619E0,-9.259946346E-1,2.645808160E-1,-1.375209391E-1
4.473763661E0,-8.917862177E-1,3.073413372E-1,-1.375209391E-1
4.476174650E0,-8.594104052E-1,3.501018882E-1,-1.387426704E-1
4.478585692E0,-8.270345330E-1,3.916406929E-1,-1.399643868E-1
4.480996682E0,-7.958804369E-1,4.307360351E-1,-1.405752599E-1
4.483407723E0,-7.659480572E-1,4.686096311E-1,-1.405752599E-1
4.485818713E0,-7.372374535E-1,5.046506524E-1,-1.411861181E-1
4.488229755E0,-7.091376781E-1,5.388590693E-1,-1.399643868E-1
4.490640796E0,-6.816487312E-1,5.718457699E-1,-1.405752599E-1
4.493051786E0,-6.566032767E-1,6.011673212E-1,-1.405752599E-1
4.495462827E0,-6.327795386E-1,6.274344921E-1,-1.411861181E-1
4.497873817E0,-6.071232557E-1,6.537016630E-1,-1.430187225E-1
4.500284859E0,-5.845212340E-1,6.750819683E-1,-1.424078494E-1
4.502695900E0,-5.625301003E-1,6.958513260E-1,-1.430187225E-1
4.505106890E0,-5.411498547E-1,7.129555345E-1,-1.430187225E-1
4.507517932E0,-5.222130418E-1,7.270054221E-1,-1.436295807E-1
4.509928921E0,-5.038870573E-1,7.373901606E-1,-1.436295807E-1
4.512339963E0,-4.861720204E-1,7.453314066E-1,-1.448513120E-1
4.514751005E0,-4.684569240E-1,7.508291602E-1,-1.430187225E-1
4.517161994E0,-4.537961781E-1,7.526617646E-1,-1.442404389E-1
4.519573036E0,-4.379136860E-1,7.520508766E-1,-1.448513120E-1
4.521984025E0,-4.244746566E-1,7.483857274E-1,-1.442404389E-1
4.524395067E0,-4.110356271E-1,7.428879142E-1,-1.442404389E-1
4.526806057E0,-3.994292021E-1,7.337249517E-1,-1.436295807E-1
4.529217098E0,-3.902662396E-1,7.190641761E-1,-1.436295807E-1
4.531628140E0,-3.798815310E-1,7.050142884E-1,-1.436295807E-1
4.534039130E0,-3.713294268E-1,6.872992516E-1,-1.430187225E-1
4.536450171E0,-3.627773225E-1,6.653081179E-1,-1.430187225E-1
4.538861161E0,-3.566686809E-1,6.420952678E-1,-1.411861181E-1
4.541272202E0,-3.505600393E-1,6.170498133E-1,-1.417969912E-1
4.543683192E0,-3.456731141E-1,5.889499784E-1,-1.417969912E-1
4.546094234E0,-3.420079052E-1,5.590176582E-1,-1.405752599E-1
4.548505275E0,-3.383427262E-1,5.284743905E-1,-1.411861181E-1
4.550916265E0,-3.365101218E-1,4.948768318E-1,-1.393535286E-1
4.553327307E0,-3.358992636E-1,4.588358104E-1,-1.393535286E-1
4.555738296E0,-3.340666890E-1,4.234056473E-1,-1.393535286E-1
4.558149338E0,-3.340666890E-1,3.849211633E-1,-1.381317973E-1
4.560560380E0,-3.346775472E-1,3.458258212E-1,-1.381317973E-1
4.562971369E0,-3.371210098E-1,3.055087626E-1,-1.387426704E-1
4.565382411E0,-3.389535844E-1,2.645808160E-1,-1.362992078E-1
4.567793400E0,-3.420079052E-1,2.236528695E-1,-1.356883347E-1
4.570204442E0,-3.450622559E-1,1.821140647E-1,-1.356883347E-1
4.572615484E0,-3.493382931E-1,1.399643868E-1,-1.356883347E-1
4.575026473E0,-3.554469347E-1,9.903645515E-2,-1.338557452E-1
4.577437515E0,-3.591121435E-1,5.688678101E-2,-1.344666034E-1
4.579848505E0,-3.639990389E-1,1.595884189E-2,-1.332448870E-1
4.582259546E0,-3.707185686E-1,-2.680169232E-2,-1.320231557E-1
4.584670536E0,-3.768272102E-1,-6.711876392E-2,-1.314122826E-1
4.587081577E0,-3.835467100E-1,-1.056032479E-1,-1.301905513E-1
4.589492619E0,-3.908770978E-1,-1.446985900E-1,-1.308014244E-1
4.591903609E0,-3.994292021E-1,-1.844048053E-1,-1.289688200E-1
4.594314650E0,-4.073704481E-1,-2.235001475E-1,-1.277471036E-1
4.596725640E0,-4.153116941E-1,-2.583194375E-1,-1.295796931E-1
4.599136682E0,-4.232529402E-1,-2.931387424E-1,-1.271362305E-1
4.601547671E0,-4.330267608E-1,-3.267363012E-1,-1.277471036E-1
4.603958713E0,-4.421897531E-1,-3.603338599E-1,-1.271362305E-1
4.606369755E0,-4.501309991E-1,-3.902662396E-1,-1.259144992E-1
4.608780744E0,-4.592939615E-1,-4.195877314E-1,-1.265253723E-1
4.611191786E0,-4.690677822E-1,-4.470766485E-1,-1.259144992E-1
4.613602775E0,-4.794524908E-1,-4.739547074E-1,-1.240819097E-1
4.616013817E0,-4.892263412E-1,-4.971675575E-1,-1.240819097E-1
4.618424807E0,-4.983893037E-1,-5.191587210E-1,-1.240819097E-1
4.620835848E0,-5.087739825E-1,-5.399280787E-1,-1.234710440E-1
4.623246890E0,-5.173261166E-1,-5.576431751E-1,-1.216384470E-1
4.625657880E0,-5.264890790E-1,-5.723039508E-1,-1.222493127E-1
4.628068921E0,-5.368737578E-1,-5.851321220E-1,-1.222493127E-1
4.630479911E0,-5.472584963E-1,-5.967385173E-1,-1.216384470E-1
4.632890952E0,-5.564214587E-1,-6.046797633E-1,-1.222493127E-1
4.635301994E0,-5.655844212E-1,-6.107884049E-1,-1.216384470E-1
4.637712984E0,-5.759691000E-1,-6.150645018E-1,-1.216384470E-1
4.640124025E0,-5.851321220E-1,-6.168970466E-1,-1.216384470E-1
4.642535015E0,-5.942950845E-1,-6.150645018E-1,-1.210275814E-1
4.644946057E0,-6.028471589E-1,-6.126210093E-1,-1.222493127E-1
4.647357046E0,-6.101775765E-1,-6.065123677E-1,-1.216384470E-1
4.649768088E0,-6.193405390E-1,-5.979602337E-1,-1.210275814E-1
4.652179130E0,-6.278926134E-1,-5.869646668E-1,-1.204167232E-1
4.654590119E0,-6.352230310E-1,-5.753582716E-1,-1.198058575E-1
4.657001161E0,-6.413316727E-1,-5.594757795E-1,-1.216384470E-1
4.659412150E0,-6.492729187E-1,-5.423715711E-1,-1.216384470E-1
4.661823192E0,-6.572141647E-1,-5.246564746E-1,-1.210275814E-1
4.664234182E0,-6.614902020E-1,-5.014436245E-1,-1.222493127E-1
4.666645223E0,-6.657662392E-1,-4.788416326E-1,-1.216384470E-1
4.669056265E0,-6.706531644E-1,-4.550178945E-1,-1.222493127E-1
4.671467255E0,-6.737074852E-1,-4.281398654E-1,-1.228601784E-1
4.673878296E0,-6.773726940E-1,-3.988183439E-1,-1.234710440E-1
4.676289286E0,-6.804270148E-1,-3.701077104E-1,-1.234710440E-1
4.678700327E0,-6.822596192E-1,-3.395644724E-1,-1.246927753E-1
4.681111369E0,-6.822596192E-1,-3.077994883E-1,-1.246927753E-1
4.683522359E0,-6.834813356E-1,-2.754236460E-1,-1.246927753E-1
4.685933400E0,-6.847030520E-1,-2.430478185E-1,-1.253036410E-1
4.688344390E0,-6.840922236E-1,-2.088394016E-1,-1.265253723E-1
4.690755432E0,-6.822596192E-1,-1.727983803E-1,-1.271362305E-1
4.693166473E0,-6.828704476E-1,-1.385899484E-1,-1.283579618E-1
4.695577463E0,-6.792052984E-1,-1.025489271E-1,-1.289688200E-1
4.697988505E0,-6.737074852E-1,-6.772962958E-2,-1.289688200E-1
4.700399494E0,-6.694314480E-1,-3.352120519E-2,-1.295796931E-1
4.702810536E0,-6.645445228E-1,2.519817324E-3,-1.301905513E-1
4.705221525E0,-6.578249931E-1,3.917170316E-2,-1.314122826E-1
4.707632567E0,-6.523272395E-1,7.338013500E-2,-1.314122826E-1
4.710043609E0,-6.443859935E-1,1.100320220E-1,-1.326340139E-1
4.712454598E0,-6.370556355E-1,1.424078494E-1,-1.332448870E-1
4.714865640E0,-6.254491806E-1,1.766162813E-1,-1.338557452E-1
4.717276630E0,-6.156753302E-1,2.096029818E-1,-1.344666034E-1
4.719687671E0,-6.046797633E-1,2.432005405E-1,-1.362992078E-1
4.722098661E0,-5.936841965E-1,2.743546367E-1,-1.362992078E-1
4.724509702E0,-5.790234804E-1,3.055087626E-1,-1.362992078E-1
4.726920744E0,-5.668061376E-1,3.342193961E-1,-1.369100660E-1
4.729331734E0,-5.515345335E-1,3.629300296E-1,-1.362992078E-1
4.731742775E0,-5.350412130E-1,3.910298049E-1,-1.375209391E-1
4.734153765E0,-5.179370046E-1,4.172970057E-1,-1.381317973E-1
4.736564807E0,-5.014436245E-1,4.417316020E-1,-1.381317973E-1
4.738975848E0,-4.812850952E-1,4.631118476E-1,-1.393535286E-1
4.741386838E0,-4.599048197E-1,4.851029813E-1,-1.381317973E-1
4.743797880E0,-4.391354322E-1,5.052615404E-1,-1.381317973E-1
4.746208869E0,-4.177551568E-1,5.223657489E-1,-1.387426704E-1
4.748619911E0,-3.939314187E-1,5.382482409E-1,-1.387426704E-1
4.751030900E0,-3.682751060E-1,5.516872406E-1,-1.387426704E-1
4.753441942E0,-3.432296515E-1,5.626828074E-1,-1.375209391E-1
4.755852984E0,-3.157407343E-1,5.712349415E-1,-1.375209391E-1
4.758263973E0,-2.864192128E-1,5.791761875E-1,-1.381317973E-1
4.760675015E0,-2.577085793E-1,5.834522247E-1,-1.362992078E-1
4.763086005E0,-2.271653414E-1,5.865065455E-1,-1.356883347E-1
4.765497046E0,-1.947895139E-1,5.871174335E-1,-1.338557452E-1
4.767908088E0,-1.624136716E-1,5.846739411E-1,-1.338557452E-1
4.770319077E0,-1.282052398E-1,5.785652995E-1,-1.301905513E-1
4.772730119E0,-9.277509153E-2,5.718457699E-1,-1.308014244E-1
4.775141109E0,-5.612320080E-2,5.608502030E-1,-1.295796931E-1
4.777552150E0,-1.824958436E-2,5.492438078E-1,-1.265253723E-1
4.779963140E0,1.962403022E-2,5.339722037E-1,-1.259144992E-1
4.782374182E0,5.749764666E-2,5.180897117E-1,-1.240819097E-1
4.784785223E0,9.964732081E-2,4.991528690E-1,-1.222493127E-1
4.787196213E0,1.393535286E-1,4.777726233E-1,-1.198058575E-1
4.789607255E0,1.802814752E-1,4.557814896E-1,-1.191949919E-1
4.792018244E0,2.230419964E-1,4.295142889E-1,-1.161406636E-1
4.794429286E0,2.670242786E-1,4.038579762E-1,-1.143080741E-1
4.796840327E0,3.103956580E-1,3.751473427E-1,-1.118646115E-1
4.799251317E0,3.549887836E-1,3.458258212E-1,-1.081994250E-1
4.801662359E0,3.989710510E-1,3.140608668E-1,-1.063668281E-1
4.804073348E0,4.447859228E-1,2.804632783E-1,-1.039233729E-1
4.806484390E0,4.924333692E-1,2.474765927E-1,-1.014799103E-1
4.808895380E0,5.382482409E-1,2.120464295E-1,-9.842558950E-2
4.811306421E0,5.840631127E-1,1.784488708E-1,-9.598212689E-2
4.813717463E0,6.317105293E-1,1.405752599E-1,-9.353867173E-2
4.816128452E0,6.793580055E-1,1.045342386E-1,-8.987347782E-2
4.818539494E0,7.282271981E-1,6.849320978E-2,-8.804088831E-2
4.820950484E0,7.770963311E-1,3.123046272E-2,-8.437569439E-2
4.823361525E0,8.259655237E-1,-7.254019380E-3,-8.254310489E-2
4.825772515E0,8.742238283E-1,-4.451677203E-2,-7.948877662E-2
4.828183557E0,9.230930209E-1,-8.177952468E-2,-7.765618712E-2
4.830594598E0,9.744057059E-1,-1.190422773E-1,-7.521272451E-2
4.833005588E0,1.025107503E0,-1.556941569E-1,-7.154753804E-2
4.835416630E0,1.078252673E0,-1.911243200E-1,-6.849320978E-2
4.837827619E0,1.127121925E0,-2.265544683E-1,-6.727148592E-2
4.840238661E0,1.180267096E0,-2.613737583E-1,-6.482802331E-2
4.842649702E0,1.232190609E0,-2.949713171E-1,-6.238456443E-2
4.845060692E0,1.284114122E0,-3.291797638E-1,-6.055197120E-2
4.847471734E0,1.338481069E0,-3.591121435E-1,-5.810851231E-2
4.849882723E0,1.391015410E0,-3.896553814E-1,-5.627591908E-2
4.852293765E0,1.445382476E0,-4.183660150E-1,-5.505418777E-2
4.854704755E0,1.497916818E0,-4.464657903E-1,-5.383246019E-2
4.857115796E0,1.553505540E0,-4.702895284E-1,-5.077813566E-2
4.859526838E0,1.608483315E0,-4.947241247E-1,-5.016727000E-2
4.861937827E0,1.664682865E0,-5.154935122E-1,-4.894553870E-2
4.864348869E0,1.719660759E0,-5.356520414E-1,-4.833467677E-2
4.866759859E0,1.774027705E0,-5.527562499E-1,-4.650207981E-2
