"Time (s)","Linear Acceleration x (m/s^2)","Linear Acceleration y (m/s^2)","Linear Acceleration z (m/s^2)"
1.009065320E-1,0.000000000E0,0.000000000E0,0.000000000E0
1.057285640E-1,8.719190955E-3,4.604816437E-3,3.593969345E-2
1.105505950E-1,-3.367230296E-3,-3.249645233E-3,5.881547928E-2
1.153726260E-1,1.039087772E-2,-6.558895111E-3,4.984760284E-2
1.201946570E-1,-3.692507744E-5,-7.481575012E-3,6.203413010E-2
1.250166890E-1,-9.823225439E-3,-9.386062622E-3,7.263231277E-2
1.298387200E-1,1.814402640E-3,-8.094787598E-3,7.140636444E-2
1.346607510E-1,4.742265493E-2,-1.235198975E-2,6.346511841E-2
1.394827820E-1,7.991662621E-2,-1.521873474E-2,5.280494690E-3
1.443048140E-1,2.567195892E-2,2.314710617E-2,-1.010541916E-1
1.491268450E-1,-1.156436205E-1,8.679485321E-2,-1.424093246E-1
1.539488760E-1,-2.200287879E-1,1.132454872E-1,-1.203126907E-1
1.587709070E-1,-2.410245389E-1,1.453433037E-1,-7.775115967E-2
1.635929390E-1,-1.858220398E-1,1.483631134E-1,-7.636547089E-3
1.684149700E-1,-1.168917120E-1,1.563720703E-1,7.349395752E-2
1.732370010E-1,-7.147955149E-2,1.655464172E-1,1.736292839E-1
1.780589800E-1,-3.767727315E-2,2.106575966E-1,2.214999199E-1
1.828810120E-1,-5.880445242E-2,2.548699379E-1,2.417621613E-1
1.877030430E-1,-8.229370415E-2,2.665357590E-1,2.949862480E-1
1.925250740E-1,-9.566962719E-2,2.620072365E-1,3.286213875E-1
1.973471050E-1,-1.177828461E-1,2.773613930E-1,2.843470573E-1
2.021691370E-1,-1.596852839E-1,2.819504738E-1,2.465591431E-1
2.069911680E-1,-2.069429010E-1,3.013329506E-1,2.720208168E-1
2.118131990E-1,-2.228032649E-1,2.878289223E-1,2.917165756E-1
2.166352300E-1,-2.371611297E-1,2.953715324E-1,2.933812141E-1
2.214572620E-1,-1.970711946E-1,2.805151939E-1,2.949829102E-1
2.262792930E-1,-1.963278353E-1,2.507991791E-1,2.885470390E-1
2.311013240E-1,-2.184115946E-1,2.229390144E-1,2.187938690E-1
2.359233550E-1,-2.566909790E-1,1.852273941E-1,1.443018913E-1
2.407453870E-1,-2.956381440E-1,1.529798508E-1,7.075214386E-2
2.455674180E-1,-3.143317699E-1,1.180224419E-1,-9.187221527E-3
2.503894490E-1,-3.005608320E-1,7.355260849E-2,-7.824611664E-2
2.552114800E-1,-2.641666234E-1,-2.668905258E-2,-1.008615494E-1
2.600334600E-1,-1.882424653E-1,-7.667970657E-2,-8.894157410E-2
2.648554910E-1,-9.450200200E-2,-1.348619461E-1,-6.670951843E-2
2.696775220E-1,-1.565620303E-2,-1.569137573E-1,-8.799076080E-3
2.744995530E-1,4.066166282E-2,-1.997313499E-1,6.530857086E-2
2.793215850E-1,5.531257391E-2,-1.894335747E-1,1.052026749E-1
2.841436160E-1,5.145901442E-2,-1.691989899E-1,8.720541000E-2
2.889656470E-1,2.465409040E-2,-1.776590347E-1,9.197139740E-2
2.937876780E-1,-4.949986935E-3,-1.721978188E-1,1.377096176E-1
2.986097100E-1,-3.403529525E-2,-1.263051033E-1,1.803059578E-1
3.034317410E-1,-6.046557426E-2,-1.015777588E-1,2.069640160E-1
3.082537720E-1,-6.925350428E-2,-1.232614517E-1,1.795125008E-1
3.130758030E-1,-6.448581815E-2,-1.258902550E-1,1.317524910E-1
3.178978350E-1,-6.176123023E-2,-1.284971237E-1,3.119659424E-2
3.227198660E-1,-5.647587776E-2,-1.052355766E-1,-4.276657104E-2
3.275418970E-1,-2.409890294E-2,-1.209769249E-1,-7.091951370E-2
3.323639280E-1,-7.480829954E-3,-1.339440346E-1,-9.404850006E-2
3.371859600E-1,6.176102161E-2,-1.535305977E-1,-1.252160072E-1
3.420079910E-1,1.229014695E-1,-1.877398491E-1,-2.077703476E-1
3.468299700E-1,1.926005781E-1,-2.033796310E-1,-2.528562546E-1
3.516520010E-1,2.227536291E-1,-2.359852791E-1,-2.870640755E-1
3.564740320E-1,2.434703112E-1,-2.476558685E-1,-2.801136971E-1
3.612960640E-1,2.255591303E-1,-2.154073715E-1,-2.056026459E-1
3.661180950E-1,1.956082284E-1,-1.788401604E-1,-1.198472977E-1
3.709401260E-1,1.833061278E-1,-1.451807022E-1,-4.636573792E-2
3.757621570E-1,1.707954705E-1,-1.026635170E-1,6.938457489E-3
3.805841890E-1,1.476493776E-1,-6.197595596E-2,3.337097168E-2
3.854062200E-1,1.070338190E-1,-4.659605026E-2,3.810644150E-2
3.902282510E-1,8.468183875E-2,1.540660858E-3,4.977655411E-2
3.950502820E-1,6.990817189E-2,1.375150681E-2,3.640842438E-2
3.998723140E-1,5.217503011E-2,2.354860306E-2,2.904462814E-2
4.046943450E-1,5.418439209E-2,-3.157615662E-3,-6.582736969E-3
4.095163760E-1,8.175185323E-2,-1.982402802E-2,-4.653978348E-2
4.143384070E-1,1.100063622E-1,-5.365896225E-2,-1.191067696E-1
4.191604390E-1,1.202997416E-1,-8.543729782E-2,-2.215933800E-1
4.239824700E-1,9.989331663E-2,-1.044960022E-1,-3.112678528E-1
4.288045010E-1,8.216376603E-2,-1.169757843E-1,-3.222770691E-1
4.336264800E-1,5.999787152E-2,-1.348619461E-1,-2.957534790E-1
4.384485120E-1,4.030860960E-2,-1.227521896E-1,-2.722730637E-1
4.432705430E-1,5.002230406E-2,-9.050750732E-2,-2.446966171E-1
4.480925740E-1,3.889988363E-2,-6.452608109E-2,-1.822209358E-1
4.529146050E-1,1.411372423E-2,-1.170969009E-2,-1.124048233E-1
4.577366370E-1,-6.703898311E-3,5.217456818E-2,-6.829500198E-2
4.625586680E-1,-7.118935883E-2,1.045165062E-1,-1.407289505E-2
4.673806990E-1,-1.210893393E-1,1.230125427E-1,4.545211792E-2
4.722027300E-1,-1.816672087E-1,1.588454247E-1,7.837915421E-2
4.770247620E-1,-2.187052965E-1,1.810913086E-1,1.063156128E-1
4.818467930E-1,-2.385097295E-1,1.851592064E-1,1.281886101E-1
4.866688240E-1,-2.449378967E-1,2.019743919E-1,1.429142952E-1
4.914908550E-1,-2.345990837E-1,2.041325569E-1,1.459274292E-1
4.963128870E-1,-1.969636381E-1,1.800780296E-1,1.301956177E-1
5.011349180E-1,-1.654044092E-1,1.666698456E-1,1.433157921E-1
5.059569490E-1,-1.314622909E-1,1.353836060E-1,1.435928345E-1
5.107789280E-1,-1.056639701E-1,1.207461357E-1,1.134099960E-1
5.156009600E-1,-6.412173808E-2,1.142425537E-1,9.927606583E-2
5.204229910E-1,-3.280869126E-2,9.446096420E-2,8.093166351E-2
5.252450220E-1,-9.048074484E-3,9.586191177E-2,5.841541290E-2
5.300670530E-1,7.468089461E-3,8.512496948E-2,3.764724731E-2
5.348890850E-1,4.667450488E-2,8.732461929E-2,-1.579904556E-2
5.397111160E-1,7.529257238E-2,5.501651764E-2,-4.362487793E-2
5.445331470E-1,9.373404086E-2,4.774236679E-2,-5.794048309E-2
5.493551780E-1,6.781574339E-2,3.097677231E-2,-1.015772820E-1
5.541772100E-1,5.371132493E-2,1.444435120E-2,-1.317725182E-1
5.589992410E-1,5.028784275E-3,2.180242538E-2,-1.249823570E-1
5.638212720E-1,-3.409558535E-2,2.912330627E-2,-9.698057175E-2
5.686433030E-1,-7.692809403E-2,6.599092484E-2,-5.861568451E-2
5.734653350E-1,-1.115971804E-1,1.321334839E-1,-4.198169708E-2
5.782873660E-1,-1.287988275E-1,1.372022629E-1,5.310058594E-3
5.831093970E-1,-1.335107982E-1,1.114578247E-1,2.369356155E-2
5.879314280E-1,-1.283391714E-1,8.353328705E-2,4.790353775E-2
5.927534070E-1,-1.062294245E-1,5.700159073E-2,6.366968155E-2
5.975754390E-1,-4.716628790E-2,3.891324997E-2,6.045293808E-2
6.023974700E-1,6.969764829E-3,-1.346397400E-2,5.619335175E-2
6.072195010E-1,6.940597296E-2,-8.084058762E-2,1.059722900E-2
6.120415320E-1,1.151951551E-1,-1.368541718E-1,-4.885292053E-2
6.168635640E-1,1.469940841E-1,-1.733012199E-1,-1.054658890E-1
6.216855950E-1,1.588325500E-1,-1.938400269E-1,-1.226124763E-1
6.265076260E-1,1.271007955E-1,-2.045569420E-1,-1.528091431E-1
6.313296570E-1,1.042913869E-1,-1.983361244E-1,-1.699519157E-1
6.361516890E-1,1.056835651E-1,-2.002058029E-1,-1.528387070E-1
6.409737200E-1,9.887021035E-2,-2.232017517E-1,-1.123838425E-1
6.457957510E-1,1.098980010E-1,-2.102365494E-1,-7.130193710E-2
6.506177820E-1,1.136457250E-1,-1.698632240E-1,-8.183765411E-2
6.554398140E-1,7.439737022E-2,-1.211757660E-1,-1.151981354E-1
6.602618450E-1,1.376298070E-2,-9.501743317E-2,-1.155056953E-1
6.650838760E-1,-5.410762131E-2,-4.621505737E-2,-7.227325439E-2
6.699059070E-1,-1.079741567E-1,-1.170873642E-2,-4.045629501E-2
6.747278870E-1,-1.325473785E-1,8.573532104E-3,-2.939653397E-2
6.795499180E-1,-1.412801892E-1,3.608226776E-2,-1.161098480E-2
6.843719490E-1,-1.651316732E-1,3.630018234E-2,4.590511322E-3
6.891939800E-1,-1.706935167E-1,3.308820724E-2,2.524852753E-2
6.940160120E-1,-1.949078739E-1,5.149126053E-2,-1.384210587E-2
6.988380430E-1,-2.172943503E-1,7.465648651E-2,-4.092979431E-2
7.036600740E-1,-2.401679456E-1,6.810569763E-2,-5.489444733E-2
7.084821050E-1,-2.241543680E-1,5.454587936E-2,-5.457115173E-2
7.133041370E-1,-1.741162837E-1,3.044652939E-2,-6.970357895E-2
7.181261680E-1,-1.150143892E-1,2.073049545E-2,-6.566953659E-2
7.229481990E-1,-5.130821466E-2,1.930809021E-2,-5.919361115E-2
7.277702300E-1,1.600490510E-2,1.412487030E-2,-2.762746811E-2
7.325922620E-1,8.704975247E-2,4.004955292E-3,6.300449371E-3
7.374142930E-1,1.405118704E-1,-4.758834839E-4,4.152584076E-2
7.422363240E-1,1.601550728E-1,-2.901363373E-2,6.972551346E-2
7.470583550E-1,1.389883012E-1,-2.797889709E-2,6.362676620E-2
7.518803350E-1,7.962223887E-2,-2.125453949E-2,1.748991013E-2
7.567023660E-1,1.900081336E-2,2.568197250E-2,-3.411102295E-2
7.615243970E-1,-5.376940966E-2,4.726886749E-2,-5.200815201E-2
7.663464280E-1,-1.411861330E-1,1.019115448E-1,-5.434274673E-2
7.711684600E-1,-2.052852958E-1,1.620459557E-1,-2.938175201E-2
7.759904910E-1,-2.180136740E-1,2.026243210E-1,2.272653580E-2
7.808125220E-1,-2.214086354E-1,2.250165939E-1,5.783557892E-2
7.856345530E-1,-2.072645724E-1,2.399182320E-1,9.164047241E-2
7.904565850E-1,-1.876958758E-1,2.403764725E-1,5.523490906E-2
7.952786160E-1,-1.638624072E-1,2.122850418E-1,1.444768906E-2
8.001006470E-1,-1.560008228E-1,1.855754852E-1,-9.360313416E-3
8.049226780E-1,-1.152723432E-1,1.459259987E-1,-2.020835876E-3
8.097447100E-1,-2.871498466E-2,8.163690567E-2,-1.486158371E-2
8.145667410E-1,4.167543352E-2,4.742193222E-2,-3.696680069E-2
8.193887720E-1,1.163165644E-1,1.329898834E-2,-7.677078247E-3
8.242107510E-1,1.632933319E-1,-1.009273529E-2,2.990913391E-2
8.290327820E-1,2.196671665E-1,-4.663181305E-2,4.730796814E-2
8.338548140E-1,2.106869668E-1,-2.977943420E-2,3.995609283E-2
8.386768450E-1,1.771333516E-1,-1.326656342E-2,4.592180252E-2
8.434988760E-1,1.144463569E-1,-1.013517380E-2,1.881504059E-2
8.483209070E-1,5.722466111E-2,1.062250137E-2,-1.985549927E-3
8.531429390E-1,1.486326754E-2,2.053070068E-2,-3.328561783E-2
8.579649700E-1,-3.050591052E-2,3.509044647E-2,-5.125570297E-2
8.627870010E-1,-3.032754362E-2,2.596426010E-2,-7.160663605E-2
8.676090320E-1,-3.113903105E-2,5.116462708E-4,-9.435844421E-2
8.724310640E-1,-3.060053289E-2,-1.969385147E-2,-1.077089310E-1
8.772530950E-1,1.869171858E-2,-2.284002304E-2,-1.164751053E-1
8.820751260E-1,6.301338971E-2,-5.056095123E-2,-9.106636047E-2
8.868971570E-1,8.462975919E-2,-7.777690887E-2,-7.206535339E-2
8.917191890E-1,1.085312739E-1,-8.791446686E-2,-4.990005493E-2
8.965412200E-1,1.382367015E-1,-8.702325821E-2,-4.122877121E-2
9.013632510E-1,1.522790939E-1,-1.060423851E-1,-3.763914108E-2
9.061852300E-1,1.518717259E-1,-1.044363976E-1,-4.386711121E-2
9.110072620E-1,1.371041089E-1,-1.274943352E-1,-5.386781693E-2
9.158292930E-1,1.281303018E-1,-1.264185905E-1,-2.841043472E-2
9.206513240E-1,1.653851867E-1,-1.323275566E-1,-1.398706436E-2
9.254733550E-1,2.223810554E-1,-1.226081848E-1,-1.027584076E-3
9.302953870E-1,2.349678129E-1,-1.343150139E-1,2.486515045E-2
9.351174180E-1,2.295960784E-1,-1.257848740E-1,5.531549454E-2
9.399394490E-1,2.135967314E-1,-9.719800949E-2,5.945491791E-2
9.447614800E-1,1.715632677E-1,-4.995536804E-2,4.466152191E-2
9.495835120E-1,9.769921005E-2,6.303310394E-3,4.786539078E-2
9.544055430E-1,3.495191038E-2,6.432008743E-2,2.982616425E-2
9.592275740E-1,-3.830079734E-2,1.051912308E-1,1.197528839E-2
9.640496050E-1,-1.077119112E-1,1.348996162E-1,5.084037781E-3
9.688716370E-1,-1.615821719E-1,1.654677391E-1,-7.620811462E-3
9.736936680E-1,-1.786222756E-1,1.920499802E-1,-2.124929428E-2
9.785156470E-1,-1.841992438E-1,2.052254677E-1,-3.465223312E-2
9.833376780E-1,-1.686584353E-1,1.956911087E-1,-6.332111359E-2
9.881597100E-1,-1.606504321E-1,1.742730141E-1,-7.386684418E-2
9.929817410E-1,-1.338758767E-1,1.469922066E-1,-8.422279358E-2
9.978037720E-1,-1.227951050E-1,1.578493118E-1,-6.003236771E-2
1.002625803E0,-1.106872857E-1,1.862096786E-1,-3.110027313E-2
1.007447835E0,-9.501272440E-2,2.034564018E-1,2.270603180E-2
1.012269866E0,-7.686352730E-2,2.261481285E-1,6.336021423E-2
1.017091897E0,-6.802096963E-2,2.162637711E-1,9.336042404E-2
1.021913928E0,-4.810395837E-2,2.203154564E-1,1.175737381E-1
1.026735960E0,-5.510860682E-2,2.405400276E-1,1.289548874E-1
1.031557991E0,-5.549746752E-2,1.996417046E-1,1.312150955E-1
1.036380022E0,-3.742036223E-2,1.705436707E-1,1.398148537E-1
1.041202053E0,-3.528398275E-2,1.009378433E-1,1.179370880E-1
1.046024085E0,8.044302464E-3,6.945896149E-2,8.839035034E-2
1.050846116E0,9.220862389E-2,1.665782928E-2,2.138900757E-2
1.055668095E0,1.587202549E-1,-6.200647354E-2,-2.582883835E-2
1.060490178E0,1.815193444E-1,-1.246232986E-1,-7.495927811E-2
1.065312157E0,1.701084971E-1,-1.843900681E-1,-8.208417892E-2
1.070134189E0,1.779654324E-1,-2.068896294E-1,-5.471611023E-2
1.074956220E0,2.188773453E-1,-2.291898727E-1,-1.927804947E-2
1.079778251E0,2.460604608E-1,-2.334618568E-1,-4.232263565E-2
1.084600282E0,2.404194325E-1,-2.482051849E-1,-4.756689072E-2
1.089422314E0,2.114520818E-1,-2.507295609E-1,-3.997898102E-2
1.094244345E0,1.815971434E-1,-2.504787445E-1,-6.491661072E-2
1.099066376E0,1.496255100E-1,-2.093858719E-1,-9.613323212E-2
1.103888407E0,1.237477660E-1,-1.953291893E-1,-1.170659065E-1
1.108710439E0,8.125838637E-2,-1.818704605E-1,-1.255426407E-1
1.113532470E0,6.384271383E-2,-1.701426506E-1,-1.418857574E-1
1.118354501E0,7.261273265E-2,-1.624617577E-1,-1.150479317E-1
1.123176532E0,7.428452373E-2,-1.221594810E-1,-6.303119659E-2
1.127998564E0,7.853172719E-2,-1.005563736E-1,-2.515935898E-2
1.132820543E0,4.876881838E-2,-7.863664627E-2,9.500503540E-3
1.137642574E0,5.664169788E-3,-6.475257874E-2,-2.868652344E-3
1.142464605E0,-2.559104562E-2,-3.398418427E-2,-1.315879822E-2
1.147286637E0,-4.015395045E-2,-7.974147797E-3,-1.174068451E-2
1.152108668E0,-3.908145428E-2,-4.561424255E-3,-9.932518005E-4
1.156930699E0,-3.888633847E-2,1.422262192E-2,-3.341674805E-3
1.161752730E0,2.119749784E-3,1.500129700E-2,-2.813482285E-2
1.166574762E0,3.755369782E-2,2.982568741E-2,-3.233432770E-2
1.171396793E0,3.081747890E-2,4.662179947E-2,-1.957702637E-2
1.176218824E0,3.801584244E-2,7.002401352E-2,-5.336284637E-3
1.181040855E0,4.602393508E-2,9.741735458E-2,1.886606216E-2
1.185862887E0,3.700780869E-2,1.157603264E-1,2.442741394E-2
1.190684918E0,2.281908691E-2,1.333780289E-1,2.222871780E-2
1.195506949E0,-1.918603480E-2,1.479020119E-1,3.131532669E-2
1.200328980E0,-5.566917360E-2,1.830325127E-1,5.638647079E-2
1.205151012E0,-1.036071032E-1,2.148966789E-1,8.066463470E-2
1.209972991E0,-1.488435119E-1,2.732520103E-1,6.611251831E-2
1.214795022E0,-2.259944230E-1,3.200860023E-1,3.423357010E-2
1.219617053E0,-3.291511834E-1,3.531827927E-1,-7.781028748E-3
1.224439085E0,-4.285824895E-1,3.787007332E-1,-2.199602127E-2
1.229261116E0,-4.758214951E-1,3.896312714E-1,-2.649116516E-2
1.234083147E0,-4.843040407E-1,3.671145439E-1,1.305818558E-2
1.238905178E0,-4.103736579E-1,3.504948616E-1,7.858085632E-2
1.243727210E0,-3.400283456E-1,2.898359299E-1,1.343283653E-1
1.248549241E0,-2.351276875E-1,2.269754410E-1,1.519689560E-1
1.253371272E0,-1.181815714E-1,1.607561111E-1,1.389393806E-1
1.258193303E0,-1.522614062E-2,7.579040527E-2,1.263437271E-1
1.263015335E0,1.025168300E-1,7.865905762E-3,1.343150139E-1
1.267837366E0,1.639661789E-1,-5.860662460E-2,1.188168526E-1
1.272659397E0,2.218577415E-1,-1.211485863E-1,6.806516647E-2
1.277481428E0,2.906665206E-1,-1.868166924E-1,1.548242569E-2
1.282303407E0,3.406625986E-1,-2.483291626E-1,-6.040954590E-2
1.287125491E0,3.970951438E-1,-3.044281006E-1,-1.191816330E-1
1.291947470E0,4.087401628E-1,-3.181838989E-1,-1.647377014E-1
1.296769501E0,3.973373175E-1,-3.230395317E-1,-2.376608849E-1
1.301591532E0,3.070780635E-1,-3.307847977E-1,-2.999172211E-1
1.306413564E0,1.787101030E-1,-2.831339836E-1,-2.852907181E-1
1.311235595E0,7.162488997E-2,-2.470593452E-1,-2.204637527E-1
1.316057626E0,4.462376237E-3,-1.903729439E-1,-2.115111351E-1
1.320879657E0,-3.043416142E-2,-1.630597115E-1,-1.808710098E-1
1.325701689E0,-6.663618982E-2,-1.482973099E-1,-1.370015144E-1
1.330523720E0,-8.991555870E-2,-1.175684929E-1,-1.072378159E-1
1.335345751E0,-8.623515069E-2,-1.326389313E-1,-9.508419037E-2
1.340167782E0,-8.073465526E-2,-1.208887100E-1,-8.720970154E-2
1.344989814E0,-6.033666432E-2,-1.407032013E-1,-6.574869156E-2
1.349811845E0,-1.981407404E-4,-1.752791405E-1,-5.684471130E-2
1.354633876E0,4.847732186E-2,-1.842422485E-1,-6.029653549E-2
1.359455907E0,8.345276862E-2,-1.774311066E-1,-4.976224899E-2
1.364277887E0,1.049654633E-1,-1.858606339E-1,-3.243589401E-2
1.369099918E0,1.380930990E-1,-1.940937042E-1,-4.503726959E-2
1.373921949E0,1.650026143E-1,-1.522598267E-1,-9.210062027E-2
1.378743980E0,1.561869830E-1,-1.272873878E-1,-9.733247757E-2
1.383566012E0,1.082180738E-1,-1.060633659E-1,-8.948373795E-2
1.388388043E0,5.944903940E-2,-5.768823624E-2,-6.868124008E-2
1.393210074E0,7.440760732E-3,8.926391602E-4,-6.458854675E-2
1.398032105E0,-7.517123222E-2,5.773878098E-2,-6.877136230E-2
1.402854137E0,-1.715008169E-1,9.860420227E-2,-6.808757782E-2
1.407676168E0,-2.423629761E-1,1.497192383E-1,-3.647422791E-2
1.412498199E0,-2.642200589E-1,1.860418320E-1,-1.211452484E-2
1.417320230E0,-2.718656659E-1,2.111701965E-1,2.767944336E-2
1.422142262E0,-2.855149806E-1,2.227110863E-1,7.696008682E-2
1.426964293E0,-2.623538971E-1,2.136077881E-1,1.238355637E-1
1.431786272E0,-2.382408082E-1,2.089180946E-1,1.541204453E-1
1.436608303E0,-2.177531570E-1,2.097072601E-1,2.012562752E-1
1.441430335E0,-1.830534190E-1,1.944923401E-1,2.485728264E-1
1.446252366E0,-1.541810185E-1,1.989607811E-1,2.569622993E-1
1.451074397E0,-1.320869774E-1,1.945142746E-1,2.551836967E-1
1.455896428E0,-6.797704101E-2,1.955180168E-1,2.088632584E-1
1.460718460E0,1.380577683E-3,1.331892014E-1,1.633896828E-1
1.465540491E0,5.942564458E-2,8.872365952E-2,1.484260559E-1
1.470362522E0,1.360265762E-1,2.059507370E-2,7.815217972E-2
1.475184553E0,1.657847166E-1,-4.592800140E-2,-2.577066422E-2
1.480006585E0,1.942671239E-1,-1.083374023E-1,-1.038827896E-1
1.484828616E0,2.000241876E-1,-1.487154961E-1,-1.755380630E-1
1.489650647E0,1.748147756E-1,-1.742291451E-1,-2.243151665E-1
1.494472678E0,1.508168131E-1,-1.719212532E-1,-2.290792465E-1
1.499294710E0,1.229119599E-1,-1.633090973E-1,-2.009496689E-1
1.504116689E0,8.032009006E-2,-1.353626251E-1,-1.983685493E-1
1.508938720E0,7.623277605E-2,-1.024813652E-1,-1.831626892E-1
1.513760751E0,4.359890521E-2,-8.020496368E-2,-1.019821167E-1
1.518582782E0,7.292985916E-3,-5.308389664E-2,-1.938629150E-2
1.523404814E0,-2.459682524E-2,-2.235651016E-2,2.783346176E-2
1.528226845E0,-3.226909041E-2,8.303642273E-3,6.140375137E-2
1.533048876E0,-4.682561755E-2,2.581596375E-2,1.111235619E-1
1.537870907E0,-6.959256530E-2,6.107187271E-2,1.318297386E-1
1.542692939E0,-8.154956996E-2,6.998252869E-2,1.131248474E-1
1.547514970E0,-1.088993400E-1,9.071111679E-2,9.451246262E-2
1.552337001E0,-1.312926114E-1,9.348487854E-2,7.362890244E-2
1.557159032E0,-1.035420597E-1,7.954978943E-2,6.719875336E-2
1.561981064E0,-3.180162609E-2,3.468513489E-2,7.878875732E-2
1.566803095E0,3.767265379E-2,4.195213318E-3,9.761810303E-2
1.571625074E0,1.074996144E-1,-9.807109833E-3,1.154713631E-1
1.576447105E0,1.482640207E-1,-4.310655594E-2,9.919214249E-2
1.581269137E0,1.759433448E-1,-7.055044174E-2,6.917095184E-2
1.586091168E0,1.599251777E-1,-6.839990616E-2,-4.194259644E-3
1.590913199E0,1.338689029E-1,-6.404447556E-2,-6.610584259E-2
1.595735230E0,9.444538504E-2,-4.195642471E-2,-1.322016716E-1
1.600557262E0,2.750094235E-2,-1.297426224E-2,-1.442971230E-1
1.605379293E0,-1.576928794E-2,2.174854279E-2,-1.159853935E-1
1.610201324E0,-6.284953654E-2,6.097650528E-2,-1.021771431E-1
1.615023355E0,-8.529520035E-2,1.035461426E-1,-7.077980042E-2
1.619845387E0,-9.407225251E-2,1.197271347E-1,-1.596784592E-2
1.624667418E0,-8.338357508E-2,1.215114594E-1,4.198646545E-2
1.629489449E0,-7.717230916E-2,1.268653870E-1,7.334184647E-2
1.634311480E0,-4.924815893E-2,1.297683716E-1,9.855318069E-2
1.639133512E0,-3.423042595E-2,1.136927605E-1,8.438730240E-2
1.643955543E0,-1.073911786E-2,8.474111557E-2,6.082105637E-2
1.648777574E0,-2.393984795E-2,6.560230255E-2,3.975629807E-2
1.653599553E0,-1.800289750E-2,4.666137695E-2,-9.639263153E-3
1.658421585E0,-4.170125723E-2,1.616573334E-2,-6.588602066E-2
1.663243616E0,-7.243174314E-2,-2.458286285E-2,-1.040363312E-1
1.668065647E0,-8.422160149E-2,-5.532026291E-2,-1.361212730E-1
1.672887678E0,-8.448201418E-2,-8.092975616E-2,-1.312952042E-1
1.677709710E0,-4.834374785E-2,-8.838844299E-2,-1.361517906E-1
1.682531741E0,1.794618368E-2,-8.381891251E-2,-1.304030418E-1
1.687353772E0,5.831021070E-2,-9.350490570E-2,-1.152462959E-1
1.692175803E0,8.011254668E-2,-8.286523819E-2,-9.911918640E-2
1.696997835E0,1.156038642E-1,-7.221555710E-2,-9.035491943E-2
1.701819866E0,1.242381036E-1,-5.448150635E-2,-3.783559799E-2
1.706641897E0,8.492299914E-2,-5.701828003E-2,-9.544372559E-3
1.711463928E0,7.268092036E-2,-1.441717148E-2,6.594657898E-3
1.716285960E0,4.214972258E-2,5.404615402E-2,3.482818604E-3
1.721107939E0,-1.802176237E-3,5.680465698E-2,2.516889572E-2
1.725929970E0,-2.342784405E-2,8.808374405E-2,4.895830154E-2
1.730752001E0,-4.308259487E-2,1.108975410E-1,6.531333923E-2
1.735574032E0,-3.334921598E-2,1.074357033E-1,9.336519241E-2
1.740396064E0,-2.043023705E-2,1.016902924E-1,1.045041084E-1
1.745218095E0,-3.159677982E-2,1.019001007E-1,1.048903465E-1
1.750040126E0,-2.500846982E-2,1.128249168E-1,8.387756348E-2
1.754862157E0,9.990125895E-3,8.216238022E-2,5.114936829E-2
1.759684189E0,1.643109322E-2,8.018779755E-2,3.298187256E-2
1.764506220E0,4.199990630E-2,7.222461700E-2,4.352188110E-2
1.769328251E0,5.699089170E-2,4.166078568E-2,2.682065964E-2
1.774150282E0,6.873491406E-2,3.846454620E-2,-2.604961395E-3
1.778972314E0,6.299266219E-2,1.019096375E-2,-1.141786575E-2
1.783794345E0,3.281460702E-2,6.856441498E-3,-2.705335617E-2
1.788616376E0,-1.450701058E-2,9.352207184E-3,-8.631753922E-2
1.793438355E0,-5.504716933E-2,1.651668549E-2,-1.402697563E-1
1.798260387E0,-7.114671171E-2,-7.438659668E-5,-1.771831512E-1
1.803082418E0,-9.500187635E-2,1.210832596E-2,-2.210478783E-1
1.807904449E0,-9.936249256E-2,1.742362976E-3,-2.195434570E-1
1.812726480E0,-6.296470761E-2,2.280712128E-3,-1.885123253E-1
1.817548512E0,-5.155235529E-3,-1.605463028E-2,-1.186828613E-1
1.822370543E0,4.899194837E-2,-3.064870834E-2,-3.639984131E-2
1.827192574E0,1.018436253E-1,-4.632234573E-2,3.810691833E-2
1.832014605E0,1.343645155E-1,-1.091527939E-2,9.308671951E-2
1.836836637E0,1.014522612E-1,-1.250553131E-2,9.414863586E-2
1.841658668E0,6.992690265E-2,3.800868988E-3,8.799695969E-2
1.846480699E0,2.894309163E-2,-1.269340515E-3,7.940578461E-2
1.851302730E0,-3.341895342E-2,-1.208353043E-2,5.887079239E-2
1.856124762E0,-4.829221964E-2,-3.098011017E-2,4.904079437E-2
1.860946793E0,-5.416378379E-2,-3.770208359E-2,1.776838303E-2
1.865768772E0,-2.871373296E-2,-4.896068573E-2,1.268386841E-2
1.870590803E0,-1.604250073E-2,-7.071876526E-2,1.346969604E-2
1.875412835E0,5.341053009E-3,-9.454107285E-2,3.425121307E-3
1.880234866E0,3.410491347E-2,-1.252398491E-1,-4.338121414E-2
1.885056897E0,6.673935056E-2,-1.294808388E-1,-5.669355392E-2
1.889878928E0,9.609161317E-2,-1.371560097E-1,-6.762742996E-2
1.894700960E0,1.057249010E-1,-1.329164505E-1,-5.355358124E-2
1.899522991E0,1.113508493E-1,-1.179838181E-1,-3.965330124E-2
1.904345022E0,8.936962485E-2,-1.043438911E-1,-2.826213837E-2
1.909167053E0,5.310755968E-2,-8.248615265E-2,-1.936388016E-2
1.913989085E0,8.744537830E-3,-4.764127731E-2,-2.251434326E-2
1.918811116E0,-2.101063728E-3,7.219791412E-3,-2.695178986E-2
1.923633147E0,-3.296162188E-2,5.228042603E-2,-2.555322647E-2
1.928455126E0,-6.464175880E-2,8.163499832E-2,1.490688324E-2
1.933277157E0,-9.471631050E-2,1.085386276E-1,1.098442078E-2
1.938099189E0,-1.183185428E-1,1.448683739E-1,-3.719329834E-3
1.942921220E0,-1.308025718E-1,1.479668617E-1,-6.839513779E-2
1.947743251E0,-1.713681519E-1,1.524639130E-1,-8.647346497E-2
1.952565282E0,-2.173076123E-1,1.108465195E-1,-7.965755463E-2
1.957387314E0,-2.187240720E-1,9.463405609E-2,-4.454517365E-2
1.962209345E0,-1.653307080E-1,1.189308167E-1,-4.889965057E-2
1.967031376E0,-1.096683145E-1,9.312963486E-2,-9.242057800E-3
1.971853407E0,-4.217883945E-2,5.783224106E-2,6.352996826E-2
1.976675439E0,5.613096058E-2,4.621410370E-2,9.688615799E-2
1.981497470E0,1.435325891E-1,2.213954926E-3,1.268453598E-1
1.986319501E0,1.963416487E-1,-1.224613190E-2,1.368603706E-1
1.991141532E0,2.291106880E-1,-2.469873428E-2,1.187925339E-1
1.995963564E0,2.194532901E-1,-2.087116241E-2,9.180688858E-2
2.000785595E0,1.805555969E-1,-1.632642746E-2,8.444881439E-2
2.005607574E0,1.125831828E-1,7.908821106E-3,9.655618668E-2
2.010429605E0,6.195610762E-2,3.868150711E-2,9.112501144E-2
2.015251637E0,1.882305741E-2,7.356166840E-2,1.003317833E-1
2.020073668E0,-2.041441202E-2,1.125040054E-1,1.110177040E-1
2.024895699E0,-7.490435243E-2,1.555228233E-1,1.053209305E-1
2.029717730E0,-1.065943390E-1,1.848855019E-1,9.752464294E-2
2.034539762E0,-1.108952314E-1,1.782464981E-1,6.265497208E-2
2.039361793E0,-1.237085611E-1,1.608939171E-1,4.595136642E-2
2.044183824E0,-1.317759007E-1,1.483302116E-1,3.896951675E-2
2.049005855E0,-9.952573478E-2,1.205086708E-1,7.071495056E-3
2.053827887E0,-4.840068519E-2,7.876682281E-2,-2.226257324E-2
2.058649918E0,-8.179709315E-3,4.231119156E-2,-4.440927505E-2
2.063471949E0,1.782274246E-2,1.545906067E-3,-5.461978912E-2
2.068293980E0,5.472584069E-2,-2.678775787E-2,-7.443714142E-2
2.073116012E0,7.995361090E-2,-8.083009720E-2,-1.037135124E-1
2.077937991E0,1.303502321E-1,-1.187252998E-1,-1.080737114E-1
2.082760022E0,1.453300416E-1,-1.607937813E-1,-1.280426979E-1
2.087582053E0,1.654956043E-1,-1.500639915E-1,-1.207690239E-1
2.092404085E0,1.540138423E-1,-1.558427811E-1,-9.117364883E-2
2.097226116E0,1.657640338E-1,-1.330118179E-1,-4.764986038E-2
2.102048147E0,1.816171706E-1,-1.304826736E-1,1.209020615E-2
2.106870178E0,1.882824898E-1,-1.374859810E-1,5.831718445E-2
2.111692210E0,1.918185353E-1,-1.635069847E-1,9.002780914E-2
2.116514241E0,1.969535053E-1,-1.929726601E-1,1.287069321E-1
2.121336272E0,2.178065032E-1,-1.938524246E-1,1.327996254E-1
2.126158303E0,2.175063640E-1,-2.065720558E-1,5.143594742E-2
2.130980335E0,2.127775848E-1,-2.332358360E-1,-3.889751434E-2
2.135802314E0,1.740179658E-1,-2.818613052E-1,-1.098103523E-1
2.140624345E0,9.890718758E-2,-3.165416718E-1,-2.078642845E-1
2.145446376E0,4.456350207E-2,-3.537249565E-1,-3.639392853E-1
2.150268407E0,2.856728435E-2,-3.669376373E-1,-5.268621445E-1
2.155090439E0,1.956346631E-2,-3.856692314E-1,-7.289586067E-1
2.159912470E0,-4.212328792E-2,-3.961424828E-1,-1.050031662E0
2.164734501E0,-1.697125137E-1,-3.775758743E-1,-1.412617207E0
2.169556532E0,-2.790785432E-1,-4.009790421E-1,-1.585416794E0
2.174378564E0,-3.281646371E-1,-5.384106636E-1,-1.486927986E0
2.179200595E0,-3.296577334E-1,-7.490634918E-1,-1.164033413E0
2.184022626E0,-2.246471941E-1,-9.651589394E-1,-8.032250404E-1
2.188844657E0,-7.195249200E-2,-1.097859859E0,-5.896673203E-1
2.193666689E0,1.164885163E-1,-1.232388973E0,-2.904505730E-1
2.198488720E0,2.660783827E-1,-1.406268120E0,1.656475067E-1
2.203310751E0,2.057167590E-1,-1.949006081E0,9.125056267E-1
2.208132730E0,1.004144400E-1,-2.474548817E0,1.851715088E0
2.212954762E0,-9.768518806E-2,-2.570031166E0,1.801064491E0
2.217776793E0,-2.202116251E-1,-2.618448496E0,1.518906593E0
2.222598824E0,-2.627733946E-1,-2.583334923E0,1.142200947E0
2.227420855E0,-3.889610469E-1,-2.590710640E0,7.648687363E-1
2.232242887E0,-5.020151138E-1,-2.733368397E0,4.194498062E-2
2.237064918E0,-2.153497189E-1,-3.595880985E0,-6.889367104E-1
2.241886949E0,1.330863833E-1,-4.400748253E0,-1.395205021E0
2.246708980E0,1.611834168E-1,-4.450538635E0,-1.563864708E0
2.251531012E0,1.598065943E-1,-4.436916351E0,-1.512338638E0
2.256353043E0,1.552695930E-1,-4.393333435E0,-1.403417587E0
2.261175074E0,1.440611333E-1,-4.370008469E0,-1.282420158E0
2.265997105E0,1.500475407E-1,-4.308354855E0,-1.132526398E0
2.270819137E0,1.181550920E-1,-4.275245667E0,-9.751515388E-1
2.275641116E0,1.176692098E-1,-4.226432800E0,-8.065438271E-1
2.280463147E0,1.100899726E-1,-4.191771030E0,-6.372857094E-1
2.285285178E0,9.883314371E-2,-4.164106846E0,-4.945926666E-1
2.290107210E0,8.245170116E-2,-4.145844460E0,-3.459396362E-1
2.294929241E0,6.539559364E-2,-4.123861790E0,-2.006540298E-1
2.299751272E0,5.569070578E-2,-4.099502087E0,-5.722904205E-2
2.304573303E0,5.058073997E-2,-4.080055237E0,5.477523804E-2
2.309395335E0,4.127025604E-2,-4.064454079E0,1.536169052E-1
2.314217366E0,1.893672347E-2,-4.064904690E0,2.360858917E-1
2.319039397E0,7.015347481E-3,-4.068434238E0,2.762279510E-1
2.323861428E0,8.726418018E-3,-4.064524174E0,3.472414017E-1
2.328683460E0,-6.358981133E-3,-4.040350914E0,4.027833939E-1
2.333505491E0,-1.236742735E-2,-4.028445721E0,4.670038223E-1
2.338327522E0,-2.401399612E-2,-4.010036945E0,5.115137100E-1
2.343149553E0,-3.698241711E-2,-3.973476887E0,5.580434799E-1
2.347971532E0,-3.842288256E-2,-3.939464092E0,6.163759232E-1
2.352793564E0,-2.863889933E-2,-3.891527891E0,6.902198792E-1
2.357615595E0,-4.977208376E-2,-3.850381136E0,7.618350983E-1
2.362437626E0,-3.502541780E-2,-3.811591625E0,8.660221100E-1
2.367259657E0,-4.798418283E-2,-3.757617235E0,9.718189240E-1
2.372081689E0,-2.895718813E-2,-3.703136444E0,1.097254753E0
2.376903720E0,-4.973357916E-2,-3.616320372E0,1.238841057E0
2.381725751E0,-7.315570116E-2,-3.560816288E0,1.381110191E0
2.386547782E0,-6.331300735E-2,-3.488079786E0,1.532549858E0
2.391369814E0,-5.830556154E-2,-3.418732166E0,1.687225342E0
2.396191845E0,-6.980723143E-2,-3.338816166E0,1.846394539E0
2.401013876E0,-7.723754644E-2,-3.287021637E0,1.998183250E0
2.405835907E0,-8.969515562E-2,-3.197895288E0,2.137845039E0
2.410657939E0,-7.701146603E-2,-3.110136509E0,2.283337593E0
2.415479970E0,-7.930016518E-2,-3.034771681E0,2.422693253E0
2.420301949E0,-8.411100507E-2,-2.951809168E0,2.546346664E0
2.425123980E0,-8.485522866E-2,-2.854382515E0,2.656671524E0
2.429946012E0,-9.050592780E-2,-2.772648811E0,2.752431870E0
2.434768043E0,-8.963871002E-2,-2.675801277E0,2.813282013E0
2.439590074E0,-8.293601871E-2,-2.583145618E0,2.867832184E0
2.444412105E0,-6.980374455E-2,-2.479331970E0,2.886126518E0
2.449234137E0,-5.687415600E-2,-2.401562214E0,2.888406754E0
2.454056168E0,-5.072662234E-2,-2.286609411E0,2.888893127E0
2.458878199E0,-4.973548651E-2,-2.184814453E0,2.869537354E0
2.463700230E0,-3.319385648E-2,-2.065092802E0,2.872014046E0
2.468522262E0,-4.142519832E-2,-1.954996943E0,2.861514091E0
2.473344293E0,-4.184716940E-2,-1.842589855E0,2.833157539E0
2.478166324E0,-4.982604086E-2,-1.752798557E0,2.833404541E0
2.482988355E0,-4.611037672E-2,-1.643862486E0,2.832244873E0
2.487810387E0,-5.219247937E-2,-1.545513511E0,2.852254868E0
2.492632366E0,-4.183174670E-2,-1.421794653E0,2.873003960E0
2.497454397E0,-3.068868816E-2,-1.325173378E0,2.905158043E0
2.502276428E0,-3.933268785E-2,-1.212449193E0,2.949818611E0
2.507098460E0,-5.136385560E-2,-1.109714508E0,2.983016968E0
2.511920491E0,-5.640017986E-2,-1.001232624E0,3.036967278E0
2.516742522E0,-6.918516755E-2,-8.795958161E-1,3.088893890E0
2.521564553E0,-7.954642177E-2,-7.696481347E-1,3.125621796E0
2.526386585E0,-7.130992413E-2,-6.400399804E-1,3.168634415E0
2.531208616E0,-7.386341691E-2,-5.310775638E-1,3.189212799E0
2.536030647E0,-8.536177874E-2,-4.112992287E-1,3.206459999E0
2.540852678E0,-1.065278351E-1,-2.863511443E-1,3.194059372E0
2.545674710E0,-1.152960062E-1,-1.415838152E-1,3.184253693E0
2.550496741E0,-1.315086484E-1,-2.314154059E-2,3.150707245E0
2.555318772E0,-1.378083229E-1,1.016040295E-1,3.099376678E0
2.560140751E0,-1.455601454E-1,2.306851447E-1,3.043368340E0
2.564962782E0,-1.458359361E-1,3.442779183E-1,2.945614815E0
2.569784814E0,-1.581517458E-1,4.762386382E-1,2.840773582E0
2.574606845E0,-1.638625264E-1,6.138323545E-1,2.714481354E0
2.579428876E0,-1.583976746E-1,7.167306542E-1,2.572725296E0
2.584250907E0,-1.634364724E-1,8.583827019E-1,2.410748482E0
2.589072939E0,-1.647936106E-1,9.614080787E-1,2.239333153E0
2.593894970E0,-1.444666386E-1,1.075221300E0,2.065690041E0
2.598717001E0,-1.394149065E-1,1.201345325E0,1.889864922E0
2.603539032E0,-1.338996887E-1,1.311453819E0,1.710727692E0
2.608361064E0,-1.144813895E-1,1.416571975E0,1.543885231E0
2.613183095E0,-1.166052222E-1,1.518290162E0,1.378665924E0
2.618005126E0,-1.027296782E-1,1.628640890E0,1.239056587E0
2.622827157E0,-7.598817348E-2,1.719332457E0,1.115578651E0
2.627649137E0,-6.929850578E-2,1.826397181E0,1.002359390E0
2.632471220E0,-6.409353018E-2,1.899806976E0,9.066810608E-1
2.637293199E0,-3.703975677E-2,2.021027803E0,8.155202866E-1
2.642115230E0,-3.050908446E-2,2.101742983E0,7.457361221E-1
2.646937262E0,1.561254263E-3,2.173138142E0,6.819114685E-1
2.651759293E0,-2.371877432E-3,2.249634981E0,6.432886124E-1
2.656581324E0,1.807689667E-2,2.328879356E0,6.096715927E-1
2.661403355E0,3.609564900E-2,2.383424044E0,5.620985031E-1
2.666225387E0,5.805283785E-2,2.460940361E0,5.401420593E-1
2.671047418E0,6.530784070E-2,2.499275684E0,4.973335266E-1
2.675869449E0,6.778696179E-2,2.550900698E0,4.804258347E-1
2.680691480E0,8.616553247E-2,2.612022400E0,4.465217590E-1
2.685513512E0,8.111804724E-2,2.656154633E0,4.399738312E-1
2.690335543E0,7.899129391E-2,2.687914371E0,4.298210144E-1
2.695157522E0,7.160988450E-2,2.723675728E0,4.317102432E-1
2.699979553E0,7.904544473E-2,2.772735834E0,4.421567917E-1
2.704801585E0,6.656751037E-2,2.810855150E0,4.660320282E-1
2.709623616E0,7.571658492E-2,2.841323376E0,5.153503418E-1
2.714445647E0,7.268384099E-2,2.862571478E0,5.793876648E-1
2.719267678E0,6.069052219E-2,2.898126841E0,6.641473770E-1
2.724089710E0,4.413107038E-2,2.938152552E0,7.624988556E-1
2.728911741E0,3.328198195E-2,2.991621494E0,8.755769730E-1
2.733733772E0,2.401438355E-2,3.024718761E0,1.026041985E0
2.738555803E0,6.287515163E-3,3.049088717E0,1.189917564E0
2.743377835E0,-8.572310209E-3,3.106085300E0,1.356340408E0
2.748199866E0,-2.107167244E-2,3.147416115E0,1.521595001E0
2.753021897E0,-2.942252159E-2,3.186993599E0,1.681942940E0
2.757843876E0,-3.293651342E-2,3.239963531E0,1.851554871E0
2.762665907E0,-4.880946875E-2,3.270078182E0,2.008720398E0
2.767487939E0,-5.243474245E-2,3.306831360E0,2.150830269E0
2.772309970E0,-6.208306551E-2,3.364131212E0,2.278843880E0
2.777132001E0,-7.329434156E-2,3.428470612E0,2.388940811E0
2.781954032E0,-7.208293676E-2,3.477910995E0,2.482011795E0
2.786776064E0,-7.059347630E-2,3.526551247E0,2.549462318E0
2.791598095E0,-5.574697256E-2,3.575198889E0,2.610100746E0
2.796420126E0,-5.636000633E-2,3.637944937E0,2.663646698E0
2.801242157E0,-7.115679979E-2,3.707293510E0,2.673952103E0
2.806064189E0,-3.434407711E-2,3.781908989E0,2.691008568E0
2.810886220E0,-3.909283876E-2,3.855575323E0,2.696580887E0
2.815708251E0,-3.733402491E-2,3.931740284E0,2.698793411E0
2.820530282E0,-2.637374401E-2,3.989852905E0,2.697337151E0
2.825352262E0,-9.657800198E-3,4.048977852E0,2.712287903E0
2.830174293E0,1.117527485E-3,4.120972633E0,2.720698357E0
2.834996324E0,-9.142756462E-3,4.161521912E0,2.716375351E0
2.839818355E0,1.001954079E-2,4.244627953E0,2.742095947E0
2.844640387E0,1.468873024E-2,4.305676937E0,2.761774063E0
2.849462418E0,1.966077089E-2,4.357744694E0,2.768028259E0
2.854284449E0,3.953742981E-2,4.404398918E0,2.819211960E0
2.859106480E0,2.924576402E-2,4.445612907E0,2.852957726E0
2.863928512E0,5.133020878E-2,4.487390041E0,2.870359421E0
2.868750543E0,3.198894858E-2,4.543982983E0,2.892734528E0
2.873572574E0,4.930168390E-2,4.583124161E0,2.902030468E0
2.878394605E0,4.739299417E-2,4.622787952E0,2.889801025E0
2.883216637E0,6.001704931E-2,4.668949127E0,2.891797543E0
2.888038668E0,6.823563576E-2,4.706170559E0,2.854219437E0
2.892860699E0,7.115134597E-2,4.717666149E0,2.824757099E0
2.897682730E0,8.567944169E-2,4.751373291E0,2.768772125E0
2.902504710E0,8.337339759E-2,4.782222748E0,2.700621605E0
2.907326741E0,9.541070461E-2,4.813932896E0,2.614405155E0
2.912148772E0,9.208542109E-2,4.802298546E0,2.523256302E0
2.916970803E0,1.068980098E-1,4.845457077E0,2.433234692E0
2.921792835E0,1.004426330E-1,4.860972404E0,2.349172592E0
2.926614866E0,1.337414086E-1,4.880028725E0,2.260393143E0
2.931436897E0,1.266855597E-1,4.882406235E0,2.169397831E0
2.936258928E0,1.234603971E-1,4.894539356E0,2.087082386E0
2.941080960E0,1.371646225E-1,4.868647575E0,2.006336689E0
2.945902991E0,1.485604942E-1,4.874211788E0,1.942862034E0
2.950725022E0,1.468010843E-1,4.863461494E0,1.886006832E0
2.955547053E0,1.472128034E-1,4.853225708E0,1.839488029E0
2.960369085E0,1.556286961E-1,4.826893806E0,1.814216137E0
2.965191064E0,1.681928337E-1,4.821578979E0,1.776854515E0
2.970013095E0,1.417154372E-1,4.793138504E0,1.758644104E0
2.974835126E0,1.513332427E-1,4.770374775E0,1.732261658E0
2.979657157E0,1.488279998E-1,4.735497475E0,1.718217850E0
2.984479189E0,1.518574953E-1,4.716093540E0,1.713076591E0
2.989301220E0,1.565148234E-1,4.680043697E0,1.678808212E0
2.994123251E0,1.505076885E-1,4.643023968E0,1.645491600E0
2.998945282E0,1.609897017E-1,4.602810860E0,1.602566719E0
3.003767314E0,1.517513990E-1,4.595410347E0,1.550236702E0
3.008589345E0,1.547448039E-1,4.556396008E0,1.468363762E0
3.013411376E0,1.444434226E-1,4.512351513E0,1.373929977E0
3.018233407E0,1.373755932E-1,4.498150349E0,1.280291557E0
3.023055439E0,1.391944289E-1,4.466115475E0,1.183996201E0
3.027877470E0,1.579135060E-1,4.434465408E0,1.075688362E0
3.032699449E0,1.443060637E-1,4.387844563E0,9.519300461E-1
3.037521480E0,1.424599886E-1,4.359985828E0,8.392047882E-1
3.042343512E0,1.282618642E-1,4.353502274E0,7.161483765E-1
3.047165543E0,1.146937013E-1,4.300503254E0,6.032171249E-1
3.051987574E0,1.136170626E-1,4.261027813E0,4.969482422E-1
3.056809605E0,1.141947508E-1,4.226955891E0,3.962755203E-1
3.061631637E0,1.200727820E-1,4.194877148E0,3.108444214E-1
3.066453668E0,1.216436625E-1,4.161509514E0,2.383909225E-1
3.071275699E0,1.155211926E-1,4.105567932E0,1.682481766E-1
3.076097730E0,1.197059751E-1,4.079867840E0,1.136465073E-1
3.080919762E0,9.970295429E-2,4.052372456E0,7.108783722E-2
3.085741793E0,1.012111306E-1,4.019656658E0,3.345012665E-2
3.090563824E0,9.214568138E-2,3.984496593E0,1.878261566E-2
3.095385855E0,9.202849865E-2,3.956556559E0,-1.830959320E-2
3.100207835E0,9.161061049E-2,3.919378519E0,-3.948307037E-2
3.105029866E0,9.127265215E-2,3.883889198E0,-6.264495850E-2
3.109851897E0,7.347637415E-2,3.852711678E0,-9.490871429E-2
3.114673928E0,8.777430654E-2,3.812837362E0,-1.016025543E-1
3.119495960E0,9.618169069E-2,3.794290543E0,-1.174106598E-1
3.124317991E0,8.721557260E-2,3.754244089E0,-1.351318359E-1
3.129140022E0,1.032544971E-1,3.707129002E0,-1.488256454E-1
3.133962053E0,8.842489123E-2,3.662678957E0,-1.740398407E-1
3.138784085E0,1.196943521E-1,3.636384964E0,-1.893301010E-1
3.143606116E0,1.316431761E-1,3.565097332E0,-1.827764511E-1
3.148428147E0,1.401589811E-1,3.524118900E0,-1.724100113E-1
3.153250178E0,1.359758377E-1,3.482378483E0,-1.439571381E-1
3.158072210E0,1.396527588E-1,3.426750898E0,-1.178150177E-1
3.162894189E0,1.465614140E-1,3.364414215E0,-7.493591309E-2
3.167716220E0,1.484728307E-1,3.306098938E0,-2.018833160E-2
3.172538251E0,1.513561010E-1,3.233822107E0,5.470180511E-2
3.177360282E0,1.576176286E-1,3.190537214E0,1.484432220E-1
3.182182314E0,1.553236544E-1,3.125921726E0,2.549676895E-1
3.187004345E0,1.491096169E-1,3.054227114E0,3.849430084E-1
3.191826376E0,1.458595097E-1,2.977801800E0,5.335063934E-1
3.196648407E0,1.394249499E-1,2.914279938E0,6.754503250E-1
3.201470439E0,1.210459173E-1,2.838521481E0,8.394136429E-1
3.206292470E0,1.000202000E-1,2.757431507E0,1.002585411E0
3.211114501E0,1.021599770E-1,2.679198265E0,1.191177368E0
3.215936532E0,9.233611822E-2,2.603550911E0,1.384757042E0
3.220758564E0,7.479980588E-2,2.506382227E0,1.564129829E0
3.225580543E0,4.909515381E-2,2.399445772E0,1.744768143E0
3.230402574E0,2.780735493E-2,2.311110020E0,1.928956032E0
3.235224605E0,2.591800690E-2,2.206433773E0,2.090317726E0
3.240046637E0,-8.454680443E-3,2.097017527E0,2.255060196E0
3.244868668E0,-1.844739914E-2,1.999319434E0,2.402773857E0
3.249690699E0,-2.845972776E-2,1.904686332E0,2.554899216E0
3.254512730E0,-6.398278475E-2,1.791260958E0,2.670719147E0
3.259334762E0,-7.283788919E-2,1.675465345E0,2.794400215E0
3.264156793E0,-1.030896902E-1,1.549832940E0,2.898387909E0
3.268978824E0,-8.924204111E-2,1.429554939E0,3.001760483E0
3.273800855E0,-1.031708717E-1,1.321487904E0,3.096118927E0
3.278622887E0,-1.245822310E-1,1.199105024E0,3.176687241E0
3.283444918E0,-1.355556250E-1,1.072754145E0,3.260179520E0
3.288266897E0,-1.622659564E-1,9.553903341E-1,3.327512741E0
3.293088928E0,-1.591807604E-1,8.311434984E-1,3.400233269E0
3.297910960E0,-1.750818491E-1,7.046209574E-1,3.461670876E0
3.302732991E0,-1.750032902E-1,5.755522847E-1,3.527438164E0
3.307555022E0,-1.944032907E-1,4.317090511E-1,3.597605705E0
3.312377053E0,-1.897845268E-1,3.028076887E-1,3.665109634E0
3.317199085E0,-2.013319135E-1,1.670914888E-1,3.702580452E0
3.322021116E0,-1.950932741E-1,3.876447678E-2,3.735276222E0
3.326843147E0,-1.991442442E-1,-1.062371731E-1,3.777674675E0
3.331665178E0,-1.806693375E-1,-2.309826016E-1,3.811977386E0
3.336487210E0,-1.725333035E-1,-3.654634953E-1,3.816843033E0
3.341309241E0,-1.658249795E-1,-5.001512170E-1,3.829499245E0
3.346131272E0,-1.600157320E-1,-6.266750097E-1,3.821416855E0
3.350953303E0,-1.473168731E-1,-7.737523317E-1,3.792786598E0
3.355775335E0,-1.368038058E-1,-9.067413211E-1,3.743796349E0
3.360597314E0,-1.341175139E-1,-1.039818406E0,3.686587334E0
3.365419345E0,-1.268514097E-1,-1.163424015E0,3.628503799E0
3.370241376E0,-1.112147272E-1,-1.291721106E0,3.551792145E0
3.375063407E0,-1.071995199E-1,-1.412608027E0,3.455458641E0
3.379885439E0,-8.965376019E-2,-1.528246164E0,3.381505966E0
3.384707470E0,-8.485051990E-2,-1.655182600E0,3.289447784E0
3.389529501E0,-6.171369553E-2,-1.774020433E0,3.217700005E0
3.394351532E0,-5.391854048E-2,-1.900017738E0,3.119791985E0
3.399173564E0,-4.969894886E-2,-2.023317099E0,3.047275543E0
3.403995595E0,-5.654725432E-2,-2.116050959E0,2.988288879E0
3.408817626E0,-5.207490921E-2,-2.229292870E0,2.910668373E0
3.413639657E0,-5.702155828E-2,-2.336414576E0,2.857544899E0
3.418461689E0,-7.420402765E-2,-2.414323807E0,2.812226295E0
3.423283720E0,-6.484636664E-2,-2.509293079E0,2.778326988E0
3.428105699E0,-7.010298967E-2,-2.602956772E0,2.710446358E0
3.432927730E0,-6.661635637E-2,-2.684089422E0,2.645639420E0
3.437749762E0,-7.293349504E-2,-2.757053852E0,2.588627815E0
3.442571793E0,-9.557840228E-2,-2.833352089E0,2.507050514E0
3.447393824E0,-1.064096093E-1,-2.903071642E0,2.427129745E0
3.452215855E0,-1.023467779E-1,-2.956155539E0,2.348696709E0
3.457037887E0,-1.209920645E-1,-3.034088135E0,2.244114876E0
3.461859918E0,-1.423204541E-1,-3.064731121E0,2.121586800E0
3.466681949E0,-1.486997604E-1,-3.129008293E0,2.001244545E0
3.471503980E0,-1.488270164E-1,-3.181066036E0,1.841022491E0
3.476326012E0,-1.608316302E-1,-3.232550383E0,1.699291229E0
3.481148043E0,-1.525943279E-1,-3.298551798E0,1.551835060E0
3.485970074E0,-1.742366552E-1,-3.326273918E0,1.423538208E0
3.490792053E0,-1.719490290E-1,-3.356045961E0,1.273469925E0
3.495614085E0,-1.790766120E-1,-3.410351753E0,1.131292343E0
3.500436116E0,-1.870822906E-1,-3.438813210E0,1.018273354E0
3.505258147E0,-1.861496270E-1,-3.460262299E0,8.767290115E-1
3.510080178E0,-1.974980533E-1,-3.491341591E0,7.710132599E-1
3.514902210E0,-1.993221641E-1,-3.547362328E0,6.530208588E-1
3.519724241E0,-1.780951917E-1,-3.570842743E0,5.524263382E-1
3.524546272E0,-1.800797880E-1,-3.589123726E0,4.689407349E-1
3.529368303E0,-1.796776950E-1,-3.608173609E0,3.940057755E-1
3.534190335E0,-1.598418057E-1,-3.638629198E0,3.118381500E-1
3.539012366E0,-1.547788084E-1,-3.662499666E0,2.652559280E-1
3.543834397E0,-1.556719542E-1,-3.703665018E0,2.169847488E-1
3.548656376E0,-1.453417540E-1,-3.711883068E0,1.548824310E-1
3.553478407E0,-1.472967118E-1,-3.727804422E0,9.551143646E-2
3.558300439E0,-1.253479421E-1,-3.761065006E0,4.233264923E-2
3.563122470E0,-1.066430062E-1,-3.780595779E0,-7.204055786E-3
3.567944501E0,-1.028181911E-1,-3.827053785E0,-5.325222015E-2
3.572766532E0,-1.027629375E-1,-3.845570564E0,-1.102266312E-1
3.577588564E0,-8.003133535E-2,-3.882791281E0,-1.674919128E-1
3.582410595E0,-6.431289017E-2,-3.903014421E0,-2.190952301E-1
3.587232626E0,-7.216487080E-2,-3.939853430E0,-2.638759613E-1
3.592054657E0,-6.522760540E-2,-3.968216658E0,-3.031291962E-1
3.596876689E0,-6.734602153E-2,-4.011040688E0,-3.571128845E-1
3.601698720E0,-4.268251359E-2,-4.049235821E0,-3.876180649E-1
3.606520751E0,-4.263582826E-2,-4.102175713E0,-4.029321671E-1
3.611342782E0,-3.739772737E-2,-4.143601894E0,-4.281797409E-1
3.616164814E0,-4.019329697E-2,-4.174890995E0,-4.286198616E-1
3.620986793E0,-4.404351115E-2,-4.214079857E0,-4.257493019E-1
3.625808824E0,-4.548972845E-2,-4.236234665E0,-4.314165115E-1
3.630630855E0,-4.115058482E-2,-4.288176537E0,-4.120216370E-1
3.635452887E0,-3.952044249E-2,-4.320990562E0,-3.842430115E-1
3.640274918E0,-5.773012340E-2,-4.375447273E0,-3.659214973E-1
3.645096949E0,-5.409301817E-2,-4.389577866E0,-3.270292282E-1
3.649918980E0,-4.570250213E-2,-4.427999496E0,-2.818841934E-1
3.654741012E0,-5.907313526E-2,-4.468276024E0,-2.434148788E-1
3.659563043E0,-8.146356046E-2,-4.478246689E0,-1.971874237E-1
3.664385074E0,-7.249146700E-2,-4.516606331E0,-1.395359039E-1
3.669207105E0,-7.907053828E-2,-4.538161278E0,-9.179496765E-2
3.674029137E0,-9.199595451E-2,-4.564513206E0,-4.074573517E-2
3.678851116E0,-9.243634343E-2,-4.580373287E0,3.031730652E-3
3.683673147E0,-8.787435293E-2,-4.594214439E0,3.603839874E-2
3.688495178E0,-8.933943510E-2,-4.621796131E0,7.397460938E-2
3.693317210E0,-1.102880239E-1,-4.645293236E0,9.659957886E-2
3.698139241E0,-1.102865338E-1,-4.666131496E0,1.196174622E-1
3.702961272E0,-1.086326540E-1,-4.671308041E0,1.443157196E-1
3.707781873E0,-1.067768931E-1,-4.696908951E0,1.469316483E-1
3.712603905E0,-1.072322428E-1,-4.696465969E0,1.443223953E-1
3.717425936E0,-1.124344170E-1,-4.701195717E0,1.544952393E-1
3.722247967E0,-1.080794036E-1,-4.706562996E0,1.524963379E-1
3.727069998E0,-1.086830795E-1,-4.697070599E0,1.467266083E-1
3.731892030E0,-1.034005582E-1,-4.710000038E0,1.373357773E-1
3.736714061E0,-1.161072254E-1,-4.712046623E0,1.459436417E-1
3.741536040E0,-1.073076129E-1,-4.692563534E0,1.486883163E-1
3.746358071E0,-9.600228071E-2,-4.691183567E0,1.528587341E-1
3.751180102E0,-9.284102917E-2,-4.688822746E0,1.620769501E-1
3.756002134E0,-9.636887908E-2,-4.661766052E0,1.788406372E-1
3.760824165E0,-1.208283603E-1,-4.643596649E0,1.996049881E-1
3.765646196E0,-1.192469895E-1,-4.634410858E0,2.232475281E-1
3.770468227E0,-1.117612422E-1,-4.616405010E0,2.581987381E-1
3.775290259E0,-1.028798521E-1,-4.596807957E0,2.805767059E-1
3.780112290E0,-1.018471420E-1,-4.592521191E0,3.060235977E-1
3.784934321E0,-1.155368388E-1,-4.574830055E0,3.416910172E-1
3.789756352E0,-1.101282239E-1,-4.552222729E0,3.732795715E-1
3.794578384E0,-1.175344288E-1,-4.520013332E0,4.079990387E-1
3.799400415E0,-1.064276099E-1,-4.481831074E0,4.350967407E-1
3.804222394E0,-1.123523712E-1,-4.460380077E0,4.581499100E-1
3.809044425E0,-1.086227000E-1,-4.417459488E0,4.640340805E-1
3.813866457E0,-1.188731343E-1,-4.394948959E0,4.886150360E-1
3.818688488E0,-1.141604930E-1,-4.366487980E0,5.115127563E-1
3.823510519E0,-1.073653251E-1,-4.327323914E0,5.291357040E-1
3.828332550E0,-9.716933966E-2,-4.285785675E0,5.414485931E-1
3.833154582E0,-9.998568892E-2,-4.238281250E0,5.556077957E-1
3.837976613E0,-9.181700647E-2,-4.191915512E0,5.667829514E-1
3.842798644E0,-8.571790159E-2,-4.153831005E0,5.904846191E-1
3.847620675E0,-8.280950785E-2,-4.102418423E0,6.099205017E-1
3.852442707E0,-7.702243328E-2,-4.060269356E0,6.226377487E-1
3.857264738E0,-7.202388346E-2,-4.020191669E0,6.382007599E-1
3.862086769E0,-6.910279393E-2,-3.968866825E0,6.672763824E-1
3.866908748E0,-7.426053286E-2,-3.906232119E0,6.978702545E-1
3.871730780E0,-6.620907784E-2,-3.856038570E0,7.334938049E-1
3.876552811E0,-4.635891318E-2,-3.795451164E0,7.740955353E-1
3.881374842E0,-6.516273320E-2,-3.745789528E0,8.136129379E-1
3.886196873E0,-6.780356169E-2,-3.669891834E0,8.615636826E-1
3.891018905E0,-6.662508845E-2,-3.602296114E0,8.963689804E-1
3.895840936E0,-6.437754631E-2,-3.526021481E0,9.263057709E-1
3.900662967E0,-8.410677314E-2,-3.455230474E0,9.572753906E-1
3.905484998E0,-8.789023757E-2,-3.381401777E0,9.927921295E-1
3.910307030E0,-7.974970341E-2,-3.298403263E0,1.026801109E0
3.915129061E0,-8.636194468E-2,-3.227431297E0,1.053184509E0
3.919951092E0,-8.783766627E-2,-3.156393528E0,1.047988892E0
3.924773123E0,-9.294196963E-2,-3.063568592E0,1.055362701E0
3.929595102E0,-1.056189537E-1,-2.982208252E0,1.054866791E0
3.934417134E0,-1.178297400E-1,-2.887022257E0,1.053596497E0
3.939239165E0,-1.226787269E-1,-2.815989494E0,1.051437378E0
3.944061196E0,-1.168971658E-1,-2.713958740E0,1.037571907E0
3.948883227E0,-1.257662177E-1,-2.641653538E0,1.015505791E0
3.953705259E0,-1.244140863E-1,-2.554631710E0,1.004304886E0
3.958527290E0,-1.272842884E-1,-2.476626396E0,9.680633545E-1
3.963349321E0,-1.487714052E-1,-2.388263226E0,9.569473267E-1
3.968171352E0,-1.362180710E-1,-2.276273251E0,9.446372986E-1
3.972993384E0,-1.339351535E-1,-2.202630520E0,9.155893326E-1
3.977815415E0,-1.393831372E-1,-2.126484394E0,8.985185623E-1
3.982637446E0,-1.308889389E-1,-2.029731274E0,9.018001556E-1
3.987459477E0,-1.297854185E-1,-1.942069769E0,8.907880783E-1
3.992281457E0,-1.094248891E-1,-1.861014962E0,8.847103119E-1
3.997103488E0,-1.089589000E-1,-1.767275095E0,8.788547516E-1
4.001925519E0,-1.089549363E-1,-1.687029362E0,8.757009506E-1
4.006747550E0,-8.750566840E-2,-1.580718875E0,8.825263977E-1
4.011569582E0,-8.479666710E-2,-1.517605305E0,8.946685791E-1
4.016391613E0,-7.403638959E-2,-1.446182609E0,9.098701477E-1
4.021213644E0,-7.390031219E-2,-1.360412717E0,9.222898483E-1
4.026035675E0,-6.241524220E-2,-1.284251690E0,9.488353729E-1
4.030857707E0,-4.633277655E-2,-1.222411156E0,9.705190659E-1
4.035679738E0,-4.303672910E-2,-1.131881952E0,9.684066772E-1
4.040501769E0,-4.024511576E-2,-1.067755938E0,9.988727570E-1
4.045323800E0,-4.469203949E-2,-1.004910469E0,1.030982971E0
4.050145832E0,-2.739208937E-2,-9.434671402E-1,1.044613838E0
4.054967811E0,-2.151477337E-2,-8.715440035E-1,1.098524094E0
4.059789842E0,-1.964592934E-2,-8.109340072E-1,1.139112473E0
4.064611873E0,-3.239041567E-2,-7.378331423E-1,1.197646141E0
4.069433905E0,-1.424553990E-2,-6.979174018E-1,1.259967804E0
4.074255936E0,-1.069116592E-2,-6.255589724E-1,1.329834938E0
4.079077967E0,-1.930579543E-2,-5.772967339E-1,1.402659416E0
4.083899998E0,-2.114892006E-2,-5.138958693E-1,1.500119209E0
4.088722030E0,-3.552168608E-2,-4.404757023E-1,1.617571831E0
4.093544061E0,-5.072730780E-2,-3.859522343E-1,1.728852272E0
4.098366092E0,-6.594988704E-2,-3.089389503E-1,1.855618477E0
4.103188123E0,-6.129649282E-2,-2.311352640E-1,1.982421875E0
4.108010155E0,-7.665827870E-2,-1.625850499E-1,2.128478050E0
4.112832186E0,-9.091088176E-2,-1.025137454E-1,2.266347885E0
4.117654165E0,-1.094772220E-1,-3.563275933E-2,2.405630112E0
4.122476196E0,-1.280518770E-1,4.478064179E-2,2.537969589E0
4.127298227E0,-1.459817886E-1,1.132433414E-1,2.678885460E0
4.132120259E0,-1.470708847E-1,2.051776052E-1,2.812784195E0
4.136942290E0,-1.544752717E-1,2.819559574E-1,2.940791130E0
4.141764321E0,-1.758642197E-1,3.671173453E-1,3.050861359E0
4.146586352E0,-1.829569936E-1,4.542441368E-1,3.142885208E0
4.151408384E0,-1.761639118E-1,5.370236039E-1,3.215543747E0
4.156230415E0,-1.820574403E-1,6.353964210E-1,3.273477554E0
4.161052446E0,-1.757150888E-1,7.227181196E-1,3.338036537E0
4.165874477E0,-1.668941379E-1,8.143271208E-1,3.386343002E0
4.170696509E0,-1.628121734E-1,9.373329282E-1,3.419411659E0
4.175518488E0,-1.586385965E-1,1.036419272E0,3.444235802E0
4.180340519E0,-1.639062166E-1,1.137683153E0,3.458243370E0
4.185162550E0,-1.557082534E-1,1.244560480E0,3.475620270E0
4.189984582E0,-1.398580074E-1,1.354331017E0,3.486581802E0
4.194806613E0,-1.435213089E-1,1.469249487E0,3.502917290E0
4.199628644E0,-1.412858367E-1,1.560499191E0,3.518470764E0
4.204450675E0,-1.363778710E-1,1.671067715E0,3.522338867E0
4.209272707E0,-1.343629360E-1,1.780393362E0,3.533455849E0
4.214094738E0,-1.217091680E-1,1.893192291E0,3.554041862E0
4.218916769E0,-1.122861505E-1,1.991508961E0,3.573191643E0
4.223738800E0,-9.964218736E-2,2.097959757E0,3.577589989E0
4.228560832E0,-1.000557542E-1,2.200561047E0,3.575480461E0
4.233382863E0,-8.916753531E-2,2.294629097E0,3.554817200E0
4.238204894E0,-8.097997308E-2,2.392078638E0,3.535787582E0
4.243026873E0,-6.424891949E-2,2.494092226E0,3.500333786E0
4.247848905E0,-5.531647801E-2,2.579262495E0,3.438832283E0
4.252670936E0,-4.435864091E-2,2.679987669E0,3.375136375E0
4.257492967E0,-4.659157991E-2,2.777219057E0,3.298416138E0
4.262314998E0,-4.266083241E-2,2.873464346E0,3.199066162E0
4.267137030E0,-4.431807995E-2,2.979547501E0,3.093771935E0
4.271959061E0,-2.760374546E-2,3.077764511E0,2.988520622E0
4.276781092E0,-1.748546958E-2,3.174179554E0,2.890436172E0
4.281603123E0,-1.044714451E-2,3.248720169E0,2.776833534E0
4.286425155E0,-2.874344587E-3,3.339766741E0,2.668037415E0
4.291247186E0,-2.074569464E-3,3.429579735E0,2.559290886E0
4.296069165E0,3.778189421E-3,3.504000664E0,2.454219818E0
4.300891196E0,8.500695229E-3,3.574048519E0,2.345715523E0
4.305713227E0,1.314061880E-2,3.657715797E0,2.252897263E0
4.310535259E0,1.611489058E-2,3.715779066E0,2.149529457E0
4.315357290E0,1.365149021E-2,3.797512293E0,2.067977905E0
4.320179321E0,3.066897392E-3,3.875570536E0,1.995126724E0
4.325001352E0,7.837146521E-3,3.927435875E0,1.904733658E0
4.329823384E0,1.211559772E-2,4.002361298E0,1.829169273E0
4.334645415E0,1.072072983E-2,4.071728230E0,1.745726585E0
4.339467446E0,3.328293562E-3,4.122694016E0,1.667675972E0
4.344289477E0,5.168616772E-3,4.165000916E0,1.577138901E0
4.349111509E0,3.202557564E-4,4.223955154E0,1.486148834E0
4.353933540E0,4.100799561E-4,4.283003807E0,1.397160530E0
4.358755571E0,5.137503147E-3,4.327960491E0,1.292295456E0
4.363577550E0,1.054853201E-2,4.396068573E0,1.190747261E0
4.368399582E0,2.483046055E-2,4.443234444E0,1.083004951E0
4.373221613E0,9.504556656E-3,4.476824760E0,9.524002075E-1
4.378043644E0,7.533073425E-3,4.518585682E0,8.301267624E-1
4.382865675E0,1.984572411E-2,4.555473328E0,7.006654739E-1
4.387687707E0,1.290899515E-2,4.585222244E0,5.879735947E-1
4.392509738E0,2.736872435E-2,4.635438919E0,4.705753326E-1
4.397331769E0,2.369600534E-2,4.680012226E0,3.641004562E-1
4.402153800E0,2.952945232E-2,4.696265697E0,2.709445953E-1
4.406975832E0,3.407943249E-2,4.716630936E0,1.469497681E-1
4.411797863E0,4.820954800E-2,4.750754833E0,5.912303925E-2
4.416619894E0,3.623479605E-2,4.780721188E0,-4.273033142E-2
4.421441873E0,4.141122103E-2,4.801923752E0,-1.178646088E-1
4.426263905E0,3.745853901E-2,4.826336861E0,-1.782398224E-1
4.431085936E0,3.069481254E-2,4.842070103E0,-2.465200424E-1
4.435907967E0,5.840605497E-2,4.859873772E0,-3.035554886E-1
4.440729998E0,4.434639215E-2,4.879806995E0,-3.409366608E-1
4.445552030E0,5.574265122E-2,4.906672955E0,-3.586521149E-1
4.450374061E0,5.346134305E-2,4.905805588E0,-3.829870224E-1
4.455196092E0,3.775772452E-2,4.907150745E0,-4.055328369E-1
4.460018123E0,6.508654356E-2,4.910609245E0,-4.143676758E-1
4.464840155E0,6.761872768E-2,4.919774532E0,-4.238204956E-1
4.469662186E0,4.556196928E-2,4.944211960E0,-4.219245911E-1
4.474484217E0,4.352462292E-2,4.951552868E0,-4.146947861E-1
4.479306248E0,4.142746329E-2,4.933373928E0,-4.009695053E-1
4.484128227E0,3.952944279E-2,4.926772594E0,-3.926887512E-1
4.488950259E0,4.872995615E-2,4.938758850E0,-3.767681122E-1
4.493772290E0,4.778303206E-2,4.936977386E0,-3.472728729E-1
4.498594321E0,4.035142064E-2,4.926159859E0,-3.114223480E-1
4.503416352E0,6.722685695E-2,4.920523643E0,-2.764606476E-1
4.508238384E0,4.483917356E-2,4.898488045E0,-2.471990585E-1
4.513060415E0,4.145573080E-2,4.888595581E0,-1.914482117E-1
4.517882446E0,5.581852794E-2,4.877583504E0,-1.451473236E-1
4.522704477E0,3.778354824E-2,4.860517025E0,-6.893253326E-2
4.527526509E0,4.949878156E-2,4.855188370E0,6.012916565E-3
4.532348540E0,3.823372722E-2,4.834012508E0,8.083724976E-2
4.537170571E0,2.789771557E-2,4.823118687E0,1.661949158E-1
4.541992550E0,3.379730880E-2,4.796069622E0,2.560176849E-1
4.546814582E0,3.075209260E-2,4.771878719E0,3.430585861E-1
4.551636613E0,1.730427146E-2,4.742029190E0,4.547138214E-1
4.556458644E0,1.012411714E-2,4.725433826E0,5.669317245E-1
4.561280675E0,1.726508141E-3,4.693251610E0,7.059030533E-1
4.566102707E0,2.672880888E-3,4.656092644E0,8.284759521E-1
4.570924738E0,-1.678287983E-3,4.616184711E0,9.560661316E-1
4.575746769E0,-6.813704967E-3,4.593670368E0,1.073020935E0
4.580568800E0,-1.659363508E-2,4.558482647E0,1.173256874E0
4.585390832E0,-2.170294523E-2,4.521256924E0,1.262674332E0
4.590212863E0,-2.716970444E-2,4.471000671E0,1.365030289E0
4.595034894E0,-2.021852136E-2,4.419573307E0,1.459903717E0
4.599856925E0,-4.048451781E-2,4.382345200E0,1.571095467E0
4.604678957E0,-5.472293496E-2,4.335209846E0,1.678140640E0
4.609500936E0,-7.037830353E-2,4.261285305E0,1.768985748E0
4.614322967E0,-7.565250993E-2,4.226156235E0,1.835184097E0
4.619144998E0,-7.668516040E-2,4.186600685E0,1.899374008E0
4.623967030E0,-8.576327562E-2,4.130568981E0,1.968666077E0
4.628789061E0,-1.028108001E-1,4.059148312E0,2.041807175E0
4.633611092E0,-1.124119759E-1,3.997206450E0,2.127038956E0
4.638433123E0,-9.669822454E-2,3.927885771E0,2.230293274E0
4.643255155E0,-1.119295359E-1,3.849881172E0,2.314478874E0
4.648077186E0,-1.293720305E-1,3.770180225E0,2.396301270E0
4.652899217E0,-1.394519508E-1,3.687500000E0,2.456663132E0
4.657721248E0,-1.372856796E-1,3.614858150E0,2.525481224E0
4.662543280E0,-1.454654038E-1,3.518721342E0,2.588464737E0
4.667365259E0,-1.495078802E-1,3.425165892E0,2.662333488E0
4.672187290E0,-1.443645060E-1,3.337769032E0,2.726879120E0
4.677009321E0,-1.574161947E-1,3.257586479E0,2.792929649E0
4.681831352E0,-1.691981554E-1,3.159426212E0,2.837877274E0
4.686653384E0,-1.722420156E-1,3.077914476E0,2.867848396E0
4.691475415E0,-1.770748794E-1,2.960388899E0,2.897327423E0
4.696297446E0,-1.666083634E-1,2.864240170E0,2.909744263E0
4.701119477E0,-1.607770324E-1,2.760653973E0,2.929139137E0
4.705941509E0,-1.461564600E-1,2.655716419E0,2.941383362E0
4.710763540E0,-1.462106705E-1,2.550561428E0,2.952608109E0
4.715585571E0,-1.438967884E-1,2.457163334E0,2.928352356E0
4.720407602E0,-1.281225383E-1,2.343381882E0,2.903548241E0
4.725229582E0,-1.224603355E-1,2.223641396E0,2.884371758E0
4.730051613E0,-1.313986480E-1,2.130288601E0,2.842344284E0
4.734873644E0,-1.247872710E-1,2.021565676E0,2.812359810E0
4.739695675E0,-1.191606075E-1,1.926349044E0,2.786274910E0
4.744517707E0,-9.756663442E-2,1.807699561E0,2.747571945E0
4.749339738E0,-9.336440265E-2,1.702899218E0,2.721592903E0
4.754161769E0,-8.375287056E-2,1.598988295E0,2.688233376E0
4.758983800E0,-7.356044650E-2,1.493813753E0,2.648924828E0
4.763805832E0,-6.752327085E-2,1.392400026E0,2.612253189E0
4.768627863E0,-5.627140403E-2,1.293844581E0,2.589181900E0
4.773449894E0,-4.587700963E-2,1.193567038E0,2.554783821E0
4.778271925E0,-4.135450721E-2,1.093174458E0,2.536761284E0
4.783093957E0,-2.509802580E-2,1.024023771E0,2.508962631E0
4.787915936E0,-3.323096037E-2,9.374933243E-1,2.475150108E0
4.792737967E0,-4.100778699E-2,8.494118452E-1,2.447388649E0
4.797559998E0,-3.338396549E-2,7.565320730E-1,2.411425591E0
4.802382030E0,-3.949525952E-2,6.940444112E-1,2.372153282E0
4.807204061E0,-6.452587247E-2,6.096323729E-1,2.323633194E0
4.812026092E0,-4.443648458E-2,5.347595811E-1,2.283820152E0
4.816848123E0,-5.025878549E-2,4.627082050E-1,2.231192589E0
4.821670155E0,-4.060906172E-2,3.806534410E-1,2.165723801E0
4.826492186E0,-5.418747663E-2,3.200888634E-1,2.094540596E0
4.831314217E0,-7.223927975E-2,2.586028278E-1,2.028322220E0
4.836136248E0,-8.677673340E-2,1.966694593E-1,1.946644783E0
4.840958280E0,-9.449237585E-2,1.393147707E-1,1.863747597E0
4.845780259E0,-9.447062016E-2,5.341981351E-2,1.783081055E0
4.850602290E0,-9.760946035E-2,-5.743950605E-3,1.710476875E0
4.855424321E0,-1.171790957E-1,-6.527841091E-2,1.632624626E0
4.860246352E0,-1.209327579E-1,-1.250362396E-1,1.551769257E0
4.865068384E0,-1.219561100E-1,-1.858999729E-1,1.489263535E0
4.869890415E0,-1.118882298E-1,-2.346004248E-1,1.429394722E0
4.874712446E0,-1.084236503E-1,-3.043359518E-1,1.383951187E0
4.879534477E0,-1.112718582E-1,-3.699162006E-1,1.346805573E0
4.884356509E0,-1.129727960E-1,-4.216042757E-1,1.307039261E0
4.889178540E0,-1.072584987E-1,-4.855577946E-1,1.286016464E0
4.894000571E0,-1.021273732E-1,-5.437401533E-1,1.271628380E0
4.898822602E0,-8.752071857E-2,-6.104723215E-1,1.249404907E0
4.903644582E0,-7.377263904E-2,-6.761046648E-1,1.247902870E0
4.908466613E0,-7.120442390E-2,-7.394422293E-1,1.247860909E0
4.913288644E0,-6.496351957E-2,-8.088350296E-1,1.258720398E0
4.918110675E0,-7.004860044E-2,-8.820443153E-1,1.264857292E0
4.922932707E0,-5.619668961E-2,-9.721503258E-1,1.272130966E0
4.927754738E0,-4.206779599E-2,-1.037485123E0,1.287638664E0
4.932576769E0,-2.490219474E-2,-1.115211248E0,1.289786339E0
4.937398800E0,-1.753658056E-2,-1.194619775E0,1.304793358E0
4.942220832E0,6.668865681E-3,-1.285439253E0,1.319451332E0
4.947042863E0,1.805177331E-2,-1.360402822E0,1.339707375E0
4.951864894E0,4.196894169E-2,-1.437669277E0,1.346419334E0
4.956686925E0,4.859733582E-2,-1.530504942E0,1.368242264E0
4.961508957E0,5.837345123E-2,-1.642685175E0,1.399180412E0
4.966330936E0,5.920791626E-2,-1.717084646E0,1.420115471E0
4.971152967E0,5.593585968E-2,-1.811329722E0,1.450199127E0
4.975974998E0,6.274983287E-2,-1.913695097E0,1.487056732E0
4.980797030E0,8.421364427E-2,-1.992141366E0,1.519962311E0
4.985619061E0,8.298251033E-2,-2.092425585E0,1.571684837E0
4.990441092E0,7.323139906E-2,-2.194410801E0,1.613560677E0
4.995263123E0,7.009196281E-2,-2.278024197E0,1.676718712E0
5.000085155E0,7.441833615E-2,-2.375807524E0,1.725338936E0
5.004907186E0,7.149070501E-2,-2.461728096E0,1.775033951E0
5.009729217E0,6.446164846E-2,-2.564680099E0,1.840178490E0
5.014551248E0,5.655410886E-2,-2.663456202E0,1.865867615E0
5.019373280E0,5.445724726E-2,-2.759484529E0,1.919105530E0
5.024195259E0,5.416798592E-2,-2.832694054E0,1.964063644E0
5.029017290E0,4.332596064E-2,-2.943030596E0,1.990025520E0
5.033839321E0,3.836649656E-2,-3.027365208E0,2.013801575E0
5.038661352E0,3.532719612E-2,-3.114562511E0,2.010326385E0
5.043483384E0,3.629589081E-2,-3.190544605E0,2.005987167E0
5.048305415E0,4.102534056E-2,-3.264989614E0,1.996024132E0
5.053127446E0,3.619873524E-2,-3.356046438E0,1.964979172E0
5.057949477E0,3.595322371E-2,-3.438694954E0,1.918878555E0
5.062771509E0,2.345252037E-2,-3.514276266E0,1.879299164E0
5.067593540E0,3.814315796E-2,-3.592511177E0,1.825987816E0
5.072415571E0,3.815686703E-2,-3.674709558E0,1.767387390E0
5.077237602E0,4.866266251E-2,-3.757260084E0,1.717864990E0
5.082059634E0,6.250071526E-2,-3.817579269E0,1.660750389E0
5.086881613E0,5.719172955E-2,-3.889229298E0,1.593747139E0
5.091703644E0,7.235974073E-2,-3.954262495E0,1.531250000E0
5.096525675E0,7.949310541E-2,-4.023426533E0,1.476888657E0
5.101347707E0,7.290917635E-2,-4.072819233E0,1.419957161E0
5.106169738E0,7.073676586E-2,-4.127558708E0,1.367686272E0
5.110991769E0,7.692098618E-2,-4.186392307E0,1.308172226E0
5.115813800E0,8.457094431E-2,-4.240910530E0,1.257004738E0
5.120635832E0,9.165382385E-2,-4.292282581E0,1.213032722E0
5.125457863E0,1.151318550E-1,-4.367893696E0,1.154754639E0
5.130279894E0,1.171214283E-1,-4.413856506E0,1.101336479E0
5.135101925E0,1.207372546E-1,-4.464773655E0,1.034868240E0
5.139923957E0,1.117932796E-1,-4.510846138E0,9.672594070E-1
5.144745936E0,1.360963583E-1,-4.550837040E0,9.152698517E-1
5.149567967E0,1.424740851E-1,-4.584606171E0,8.418149948E-1
5.154389998E0,1.491371393E-1,-4.623992920E0,7.743892670E-1
5.159212030E0,1.598281860E-1,-4.670079708E0,7.117710114E-1
5.164034061E0,1.806248724E-1,-4.697472572E0,6.490592957E-1
5.168856092E0,1.902371347E-1,-4.723968506E0,5.670862198E-1
5.173678123E0,1.827951670E-1,-4.765038013E0,4.957332611E-1
5.178500155E0,1.894507110E-1,-4.779749393E0,4.205150604E-1
5.183322186E0,2.078303993E-1,-4.777557850E0,3.616847992E-1
5.188144217E0,2.151450515E-1,-4.816833973E0,3.035774231E-1
5.192966248E0,2.305301130E-1,-4.831620216E0,2.389183044E-1
5.197788280E0,2.335776538E-1,-4.852834225E0,1.891117096E-1
5.202610311E0,2.409369498E-1,-4.863511086E0,1.432409286E-1
5.207432290E0,2.513337135E-1,-4.877865791E0,9.522438049E-2
5.212254321E0,2.501511276E-1,-4.871766090E0,4.728507996E-2
5.217076352E0,2.635257244E-1,-4.872591496E0,1.842880249E-2
5.221898384E0,2.614293694E-1,-4.869389057E0,1.106262207E-4
5.226720415E0,2.579926252E-1,-4.862022400E0,-3.291416168E-2
5.231542446E0,2.482325435E-1,-4.872966766E0,-6.648921967E-2
5.236364477E0,2.688899040E-1,-4.853034019E0,-9.123516083E-2
5.241186509E0,2.611725330E-1,-4.842732430E0,-1.145057678E-1
5.246008540E0,2.798697948E-1,-4.826367378E0,-1.496162415E-1
5.250830571E0,2.697126865E-1,-4.802626610E0,-1.764039993E-1
5.255652602E0,2.651535571E-1,-4.796469688E0,-2.105960846E-1
5.260474582E0,2.647593617E-1,-4.764709473E0,-2.547626495E-1
5.265296613E0,2.706816196E-1,-4.735929489E0,-2.923345566E-1
5.270118644E0,2.624898553E-1,-4.721929073E0,-3.390417099E-1
5.274940675E0,2.722432315E-1,-4.701092720E0,-3.687357903E-1
5.279762707E0,2.471431494E-1,-4.676870823E0,-4.162778854E-1
5.284584738E0,2.480668426E-1,-4.651578426E0,-4.542946815E-1
5.289406769E0,2.522133291E-1,-4.616725922E0,-4.937119484E-1
5.294228800E0,2.630218267E-1,-4.592595100E0,-5.417966843E-1
5.299050832E0,2.624559402E-1,-4.571816444E0,-5.616912842E-1
5.303872863E0,2.433218658E-1,-4.542470455E0,-5.940766335E-1
5.308694894E0,2.474998236E-1,-4.490087509E0,-6.115875244E-1
5.313516925E0,2.437802553E-1,-4.464775562E0,-6.298851967E-1
5.318338957E0,2.335440516E-1,-4.434203625E0,-6.406269073E-1
5.323160988E0,2.441587448E-1,-4.406585693E0,-6.523122787E-1
5.327982967E0,2.374967933E-1,-4.346058846E0,-6.517791748E-1
5.332804998E0,2.363438904E-1,-4.325420856E0,-6.486706734E-1
5.337627030E0,2.479879260E-1,-4.294363976E0,-6.489686966E-1
5.342449061E0,2.402796149E-1,-4.224180222E0,-6.335177422E-1
5.347271092E0,2.432930470E-1,-4.194882393E0,-6.047201157E-1
5.352093123E0,2.439932525E-1,-4.158551216E0,-5.840668678E-1
5.356915155E0,2.318570614E-1,-4.136687279E0,-5.810127258E-1
5.361737186E0,2.262371182E-1,-4.087314129E0,-5.644464493E-1
5.366559217E0,2.309190631E-1,-4.040377617E0,-5.378170013E-1
5.371381196E0,2.316916585E-1,-4.016045570E0,-5.178346634E-1
5.376203280E0,2.360561192E-1,-3.982074976E0,-5.031080246E-1
5.381025259E0,2.514412999E-1,-3.956367254E0,-4.875221252E-1
5.385847290E0,2.326004505E-1,-3.931797266E0,-4.589328766E-1
5.390669321E0,2.383984625E-1,-3.890377045E0,-4.399328232E-1
5.395491352E0,2.344514430E-1,-3.868013144E0,-4.147715569E-1
5.400313384E0,2.483876050E-1,-3.833661556E0,-3.784761429E-1
5.405135415E0,2.446121573E-1,-3.795725822E0,-3.165216446E-1
5.409957446E0,2.257178426E-1,-3.765029907E0,-2.789087296E-1
5.414779477E0,2.205334157E-1,-3.729730129E0,-2.151708603E-1
5.419601509E0,2.411428243E-1,-3.719771385E0,-1.573839188E-1
5.424423540E0,2.266830802E-1,-3.687376738E0,-7.426643372E-2
5.429245571E0,2.131936848E-1,-3.648287773E0,1.173019409E-2
5.434067602E0,2.198193818E-1,-3.607417107E0,1.068115234E-1
5.438889582E0,2.106900811E-1,-3.563702106E0,2.076139450E-1
5.443711613E0,1.905351579E-1,-3.544837713E0,3.239545822E-1
5.448533644E0,1.820585728E-1,-3.516298771E0,4.464826584E-1
5.453355675E0,1.791569591E-1,-3.452035904E0,5.742435455E-1
5.458177707E0,1.422306299E-1,-3.406144619E0,7.110691071E-1
5.462999738E0,1.463871002E-1,-3.375234127E0,8.368415833E-1
5.467821769E0,1.351798475E-1,-3.340438604E0,9.864377975E-1
5.472643800E0,1.214847565E-1,-3.276942730E0,1.137315750E0
5.477465832E0,1.026682258E-1,-3.222206593E0,1.288494110E0
5.482287863E0,8.437424898E-2,-3.154976130E0,1.412627220E0
5.487109894E0,6.974792480E-2,-3.098293543E0,1.557678223E0
5.491931925E0,6.443971395E-2,-3.057313919E0,1.697471619E0
5.496753905E0,5.974966288E-2,-2.988125801E0,1.844053268E0
5.501575936E0,3.129857779E-2,-2.912652493E0,1.953275681E0
5.506397967E0,1.709270477E-2,-2.855141163E0,2.074229240E0
5.511219998E0,1.311779022E-2,-2.769378185E0,2.199768066E0
5.516042030E0,-4.811406136E-3,-2.689168453E0,2.298820496E0
5.520864061E0,-2.146792412E-2,-2.608856678E0,2.402466774E0
5.525686092E0,-1.911079884E-2,-2.522913218E0,2.496361732E0
5.530508123E0,-3.501665592E-2,-2.443567753E0,2.580463409E0
5.535330155E0,-4.182118177E-2,-2.362728119E0,2.675031662E0
5.540152186E0,-4.553931952E-2,-2.264036894E0,2.750133514E0
5.544974217E0,-5.582576990E-2,-2.159716606E0,2.824824333E0
5.549796196E0,-6.426870823E-2,-2.063148022E0,2.901409149E0
5.554618280E0,-7.199555635E-2,-1.961414814E0,2.967847824E0
5.559440259E0,-7.287168503E-2,-1.832063675E0,3.038405418E0
5.564262290E0,-7.381325960E-2,-1.737482786E0,3.108205795E0
5.569084321E0,-9.251111746E-2,-1.633582592E0,3.169981003E0
5.573906352E0,-8.680635691E-2,-1.531241298E0,3.233199120E0
5.578728384E0,-8.994895220E-2,-1.409135103E0,3.281026840E0
5.583550415E0,-8.110851049E-2,-1.305660605E0,3.327728271E0
5.588372446E0,-8.025804162E-2,-1.201612711E0,3.376777649E0
5.593194477E0,-9.297171235E-2,-1.072041988E0,3.419708252E0
5.598016509E0,-1.044329405E-1,-9.564263821E-1,3.448059082E0
5.602838540E0,-9.388375282E-2,-8.570501208E-1,3.466531754E0
5.607660571E0,-9.676778316E-2,-7.511975765E-1,3.482204437E0
5.612482602E0,-9.831380844E-2,-6.316410303E-1,3.483038902E0
5.617304582E0,-1.077249944E-1,-5.042206049E-1,3.470155716E0
5.622126613E0,-9.116515517E-2,-3.903688192E-1,3.455435753E0
5.626948644E0,-8.421811461E-2,-2.959747314E-1,3.438798904E0
5.631770675E0,-9.856835008E-2,-1.646233201E-1,3.408225060E0
5.636592707E0,-1.052892804E-1,-4.633086920E-2,3.360087395E0
5.641414738E0,-1.007033885E-1,7.344716787E-2,3.302713394E0
5.646236769E0,-9.304192662E-2,1.949846148E-1,3.255195618E0
5.651058800E0,-1.026933491E-1,3.208867013E-1,3.173269272E0
5.655880832E0,-1.093814075E-1,4.239710569E-1,3.098777771E0
5.660702863E0,-1.180088520E-1,5.439323187E-1,3.025718689E0
5.665524894E0,-1.036827564E-1,6.631456614E-1,2.961252213E0
5.670346925E0,-1.108465493E-1,7.795277834E-1,2.873107910E0
5.675168957E0,-1.278200150E-1,9.112548232E-1,2.800746918E0
5.679990936E0,-1.238738298E-1,1.020390391E0,2.728628159E0
5.684812967E0,-1.304670870E-1,1.135947466E0,2.626891136E0
5.689634998E0,-1.396974027E-1,1.240418553E0,2.543395042E0
5.694457030E0,-1.566557288E-1,1.366251945E0,2.462593079E0
5.699279061E0,-1.674933732E-1,1.472007394E0,2.364196777E0
5.704101092E0,-1.797823012E-1,1.591399074E0,2.279314995E0
5.708923123E0,-1.820663810E-1,1.709179878E0,2.181662560E0
5.713745155E0,-1.926378310E-1,1.795784235E0,2.080847740E0
5.718567186E0,-1.927360296E-1,1.901693225E0,1.970927238E0
5.723389217E0,-2.031418383E-1,2.012880325E0,1.859121323E0
5.728211248E0,-2.215807736E-1,2.112701893E0,1.727536201E0
5.733033280E0,-2.125684023E-1,2.225330353E0,1.631204605E0
5.737855259E0,-2.229038477E-1,2.299633980E0,1.513980865E0
5.742677290E0,-2.228442729E-1,2.381224632E0,1.379531860E0
5.747499321E0,-2.232351899E-1,2.469061375E0,1.266179085E0
5.752321352E0,-2.240440249E-1,2.558419228E0,1.154843330E0
5.757143384E0,-2.204869986E-1,2.635105133E0,1.045605659E0
5.761965415E0,-2.125360668E-1,2.713592052E0,9.349632263E-1
5.766787446E0,-2.095221579E-1,2.784376383E0,8.385496140E-1
5.771609477E0,-2.171841860E-1,2.864175797E0,7.588186264E-1
5.776431509E0,-2.114613950E-1,2.936307907E0,6.815109253E-1
5.781253540E0,-2.147707343E-1,2.991189718E0,6.079149246E-1
5.786075571E0,-2.160823643E-1,3.061179876E0,5.524787903E-1
5.790897602E0,-2.077950835E-1,3.128228664E0,5.152702332E-1
5.795719582E0,-2.075522244E-1,3.180332661E0,4.712629318E-1
5.800541613E0,-2.136665881E-1,3.237628937E0,4.444246292E-1
5.805363644E0,-1.960060745E-1,3.292939186E0,4.276628494E-1
5.810185675E0,-1.912716180E-1,3.336518288E0,4.269943237E-1
5.815007707E0,-1.906508207E-1,3.387311220E0,4.281063080E-1
5.819829738E0,-1.974115521E-1,3.428518295E0,4.334564209E-1
5.824651769E0,-1.945636570E-1,3.474244595E0,4.418630600E-1
5.829473800E0,-1.913306713E-1,3.525404453E0,4.604883194E-1
5.834295832E0,-1.981799006E-1,3.562711239E0,4.809770584E-1
5.839117863E0,-1.946459115E-1,3.606279373E0,5.009365082E-1
5.843939894E0,-1.924998760E-1,3.646227360E0,5.250968933E-1
5.848761873E0,-1.976192296E-1,3.678761005E0,5.606040955E-1
5.853583957E0,-1.955497414E-1,3.713157892E0,5.918474197E-1
5.858405936E0,-2.005838007E-1,3.738394022E0,6.355009079E-1
5.863227967E0,-2.199494243E-1,3.779317379E0,6.843090057E-1
5.868049998E0,-2.202353328E-1,3.816478014E0,7.393560410E-1
5.872872030E0,-2.266310155E-1,3.843655348E0,7.981548309E-1
5.877694061E0,-2.380759269E-1,3.890462399E0,8.581933975E-1
5.882516092E0,-2.380207926E-1,3.933876514E0,9.336738586E-1
5.887338123E0,-2.410028279E-1,3.965302706E0,1.007723808E0
5.892160155E0,-2.627528310E-1,4.002372265E0,1.100483894E0
5.896982186E0,-2.664643526E-1,4.040062904E0,1.173537254E0
5.901804217E0,-2.679270208E-1,4.079339504E0,1.250644684E0
5.906626248E0,-2.781525254E-1,4.116327763E0,1.347123146E0
5.911448280E0,-2.830748856E-1,4.152062416E0,1.443668365E0
5.916270259E0,-2.889183760E-1,4.191074848E0,1.517359734E0
5.921092290E0,-2.911897898E-1,4.222431660E0,1.585956573E0
5.925914321E0,-2.758237720E-1,4.268620491E0,1.664767265E0
5.930736352E0,-3.087551594E-1,4.304289341E0,1.732017517E0
5.935558384E0,-3.148877621E-1,4.353250980E0,1.788737297E0
5.940380415E0,-3.147617877E-1,4.384301186E0,1.841912270E0
5.945202446E0,-3.181243539E-1,4.440327644E0,1.879376411E0
5.950024477E0,-3.251254559E-1,4.473327160E0,1.911662102E0
5.954846509E0,-3.299062252E-1,4.501181126E0,1.945768356E0
5.959668540E0,-3.289921582E-1,4.522580147E0,1.965950012E0
5.964490571E0,-3.224841356E-1,4.560191154E0,1.989988327E0
5.969312550E0,-3.223217130E-1,4.605535030E0,1.998579025E0
5.974134582E0,-3.405115604E-1,4.642998695E0,2.017860413E0
5.978956613E0,-3.268430233E-1,4.647430420E0,2.030932426E0
5.983778644E0,-3.291300535E-1,4.688151360E0,2.032900810E0
5.988600675E0,-3.233715892E-1,4.716061592E0,2.036787033E0
5.993422707E0,-3.238534033E-1,4.721588135E0,2.050846100E0
5.998244738E0,-3.305074573E-1,4.739369392E0,2.041498184E0
6.003066769E0,-3.407934904E-1,4.741880894E0,2.051708221E0
6.007888800E0,-3.378202915E-1,4.762571812E0,2.078988075E0
6.012710832E0,-3.382836878E-1,4.755980015E0,2.082618713E0
6.017532863E0,-3.372004926E-1,4.765152931E0,2.081714153E0
6.022354894E0,-3.332242072E-1,4.767356396E0,2.106127262E0
6.027176925E0,-3.345502913E-1,4.757808685E0,2.104422569E0
6.031998905E0,-3.457777798E-1,4.755563259E0,2.116010666E0
6.036820936E0,-3.260420859E-1,4.729621887E0,2.123023033E0
6.041642967E0,-3.360641003E-1,4.716966629E0,2.114669800E0
6.046464998E0,-3.279501498E-1,4.690120697E0,2.104160309E0
6.051287030E0,-3.240976036E-1,4.681377411E0,2.108285904E0
6.056109061E0,-3.124126792E-1,4.653729439E0,2.085304260E0
6.060931092E0,-3.105840087E-1,4.616729736E0,2.061578751E0
6.065753123E0,-3.077154458E-1,4.591921329E0,2.033619881E0
6.070575155E0,-3.107446730E-1,4.549472809E0,1.996778488E0
6.075397186E0,-2.944555879E-1,4.514480114E0,1.948751450E0
6.080219217E0,-3.040180504E-1,4.478676796E0,1.906460762E0
6.085041248E0,-2.867750525E-1,4.439782143E0,1.855742455E0
6.089863227E0,-2.784341574E-1,4.391775131E0,1.801464081E0
6.094685259E0,-2.765510976E-1,4.353924274E0,1.730701447E0
6.099507290E0,-2.857674956E-1,4.297609329E0,1.689050674E0
6.104329321E0,-2.666216791E-1,4.252758503E0,1.659897804E0
6.109151352E0,-2.525834441E-1,4.206429482E0,1.593310356E0
6.113973384E0,-2.531946301E-1,4.149051666E0,1.558764458E0
6.118795415E0,-2.421480715E-1,4.096308231E0,1.530149460E0
6.123617446E0,-2.291001379E-1,4.023264885E0,1.480205536E0
6.128439477E0,-2.225286216E-1,3.983849525E0,1.450990677E0
6.133261509E0,-2.070023268E-1,3.927980900E0,1.424762726E0
6.138083540E0,-1.970011592E-1,3.868950367E0,1.393349648E0
6.142905571E0,-2.237285376E-1,3.842728615E0,1.365302086E0
6.147727550E0,-2.180687934E-1,3.768391371E0,1.344506264E0
6.152549582E0,-1.910368204E-1,3.697444439E0,1.311959267E0
6.157371613E0,-2.015210837E-1,3.649245262E0,1.266691208E0
6.162193644E0,-2.150739282E-1,3.600087166E0,1.235182762E0
6.167015675E0,-2.056788355E-1,3.537014961E0,1.191283226E0
6.171837707E0,-1.999152154E-1,3.491482496E0,1.142390251E0
6.176659738E0,-1.968935728E-1,3.436119556E0,1.090992928E0
6.181481769E0,-2.089538872E-1,3.380813122E0,1.037247658E0
6.186303800E0,-2.088166177E-1,3.331815958E0,9.908380508E-1
6.191125832E0,-2.027460933E-1,3.276196480E0,9.351100922E-1
6.195947863E0,-1.934267282E-1,3.222616673E0,8.773317337E-1
6.200769894E0,-2.025826275E-1,3.180875778E0,8.068180084E-1
6.205591925E0,-1.957305968E-1,3.126154900E0,7.475452423E-1
6.210413905E0,-2.042199969E-1,3.075556993E0,6.995725632E-1
6.215235936E0,-2.089696825E-1,3.016088963E0,6.545190811E-1
6.220057967E0,-1.967941225E-1,2.947319508E0,5.926427841E-1
6.224879998E0,-1.942833662E-1,2.880245686E0,5.605087280E-1
6.229702030E0,-2.013139725E-1,2.815119982E0,5.234546661E-1
6.234524061E0,-2.059632838E-1,2.733106613E0,4.874095917E-1
6.239346092E0,-2.057289779E-1,2.664258957E0,4.630212784E-1
6.244168123E0,-1.993482411E-1,2.599210024E0,4.537181854E-1
6.248990155E0,-1.903407872E-1,2.527443409E0,4.439010620E-1
6.253812186E0,-1.986466944E-1,2.477636337E0,4.311428070E-1
6.258634217E0,-1.918364167E-1,2.392775059E0,4.355726242E-1
6.263456196E0,-1.851195991E-1,2.325584412E0,4.522542953E-1
6.268278227E0,-1.722485125E-1,2.252244949E0,4.691429138E-1
6.273100259E0,-1.695611775E-1,2.183621883E0,4.956579208E-1
6.277922290E0,-1.517386734E-1,2.105449200E0,5.245132446E-1
6.282744321E0,-1.434304416E-1,2.042810440E0,5.496826172E-1
6.287566352E0,-1.346642971E-1,1.975498915E0,5.841760635E-1
6.292388384E0,-1.275137365E-1,1.896362901E0,6.349363327E-1
6.297210415E0,-1.073490977E-1,1.812677026E0,6.875181198E-1
6.302032446E0,-9.402269125E-2,1.726691246E0,7.584209442E-1
6.306854477E0,-9.439462423E-2,1.620621681E0,8.296203613E-1
6.311676509E0,-7.605719566E-2,1.543228388E0,8.844251633E-1
6.316498540E0,-6.741827726E-2,1.454999566E0,9.537467957E-1
6.321320571E0,-5.986383557E-2,1.361775160E0,1.031461716E0
6.326142550E0,-7.228201628E-2,1.284782648E0,1.111502647E0
6.330964582E0,-5.699750781E-2,1.178718925E0,1.206852913E0
6.335786613E0,-4.740956426E-2,1.082750678E0,1.311400414E0
6.340608644E0,-3.045114875E-2,9.763625264E-1,1.413159370E0
6.345430675E0,-4.100364447E-2,8.811265230E-1,1.526505470E0
6.350252707E0,-3.233730793E-2,7.862865925E-1,1.643658638E0
6.355074738E0,-2.385875583E-2,6.868450046E-1,1.776543617E0
6.359896769E0,-2.655470371E-2,5.776882768E-1,1.921538353E0
6.364718800E0,-3.350529075E-2,4.621491730E-1,2.051130295E0
6.369540832E0,-4.874551296E-2,3.615053594E-1,2.186831474E0
6.374362863E0,-3.910189867E-2,2.526662946E-1,2.327432632E0
6.379184894E0,-4.920044541E-2,1.318245083E-1,2.440653801E0
6.384006873E0,-4.246115685E-2,2.013479173E-2,2.555195808E0
6.388828905E0,-5.147814751E-2,-1.065225676E-1,2.691366196E0
6.393650936E0,-6.356078386E-2,-2.258228362E-1,2.807308197E0
6.398472967E0,-6.479597092E-2,-3.403877318E-1,2.911405563E0
6.403294998E0,-7.350850105E-2,-4.577062726E-1,3.002476692E0
6.408117030E0,-7.679677010E-2,-5.852366090E-1,3.079356194E0
6.412939061E0,-8.698755503E-2,-7.124757767E-1,3.156407356E0
6.417761092E0,-8.401399851E-2,-8.467722535E-1,3.209748268E0
6.422583123E0,-7.767653465E-2,-9.537876844E-1,3.245417595E0
6.427405155E0,-7.640790939E-2,-1.076735020E0,3.269454002E0
6.432227186E0,-8.517611027E-2,-1.195483208E0,3.290283203E0
6.437049217E0,-1.027470827E-1,-1.319783807E0,3.305589676E0
6.441871196E0,-8.362144232E-2,-1.437780857E0,3.304700851E0
6.446693227E0,-7.560747862E-2,-1.559251070E0,3.314017296E0
6.451515259E0,-7.619684935E-2,-1.695016861E0,3.304943085E0
6.456337290E0,-8.391225338E-2,-1.816468835E0,3.295540810E0
6.461159321E0,-7.822847366E-2,-1.951156139E0,3.277564049E0
6.465981352E0,-6.121051311E-2,-2.041792154E0,3.252351761E0
6.470803384E0,-4.926747084E-2,-2.164891958E0,3.230797768E0
6.475625415E0,-3.611803055E-2,-2.286904812E0,3.205856323E0
6.480447446E0,-3.927206993E-2,-2.400683403E0,3.172896385E0
6.485269477E0,-2.614051104E-2,-2.525156260E0,3.126064301E0
6.490091509E0,-1.416492462E-2,-2.636470079E0,3.090631485E0
6.494913488E0,-6.449222565E-4,-2.742796898E0,3.059520721E0
6.499735571E0,5.334794521E-3,-2.871505260E0,2.987443924E0
6.504557550E0,5.239427090E-3,-2.973423719E0,2.925942421E0
6.509379582E0,3.285858035E-2,-3.063899517E0,2.858365059E0
6.514201613E0,5.863115191E-2,-3.171426535E0,2.777644157E0
6.519023644E0,7.794043422E-2,-3.276574612E0,2.692213058E0
6.523845675E0,7.547950745E-2,-3.380286694E0,2.599746704E0
6.528667707E0,8.969330788E-2,-3.455987215E0,2.518215179E0
6.533489738E0,1.253809333E-1,-3.545255423E0,2.417755127E0
6.538311769E0,1.383613646E-1,-3.619105101E0,2.327077866E0
6.543133800E0,1.453034580E-1,-3.707081079E0,2.227028847E0
6.547955832E0,1.390534043E-1,-3.780155897E0,2.121172905E0
6.552777863E0,1.552841067E-1,-3.852374792E0,2.035754204E0
6.557599842E0,1.638987660E-1,-3.918619633E0,1.947967529E0
6.562421873E0,1.838696599E-1,-3.989333630E0,1.844586372E0
6.567243905E0,1.873910427E-1,-4.048597336E0,1.770901680E0
6.572065936E0,1.944812536E-1,-4.086582184E0,1.687325478E0
6.576887967E0,1.881996989E-1,-4.138825893E0,1.604465485E0
6.581709998E0,2.029235959E-1,-4.204999447E0,1.524541855E0
6.586532030E0,2.059850991E-1,-4.254920483E0,1.442578316E0
6.591354061E0,2.041755617E-1,-4.281118393E0,1.382246971E0
6.596176092E0,2.020933032E-1,-4.340713978E0,1.295515060E0
6.600998123E0,2.124935389E-1,-4.361701012E0,1.215624809E0
6.605820155E0,2.148274779E-1,-4.400029182E0,1.137536049E0
6.610642186E0,2.135224938E-1,-4.422016621E0,1.064581871E0
6.615464217E0,2.155733705E-1,-4.438189507E0,9.701919556E-1
6.620286248E0,1.945152879E-1,-4.465082645E0,8.863878250E-1
6.625108227E0,2.074639201E-1,-4.496600151E0,7.985858917E-1
6.629930259E0,2.077655792E-1,-4.520587921E0,7.184648514E-1
6.634752290E0,2.084345818E-1,-4.551220894E0,6.242256165E-1
6.639574321E0,2.117925882E-1,-4.560948849E0,5.180692673E-1
6.644396352E0,2.166002989E-1,-4.579623222E0,4.201240540E-1
6.649218384E0,2.073957324E-1,-4.595153809E0,3.253574371E-1
6.654040415E0,2.164874673E-1,-4.619413376E0,2.502784729E-1
6.658862446E0,2.176498771E-1,-4.628458977E0,1.624193192E-1
6.663684477E0,2.050417066E-1,-4.658140659E0,8.553981781E-2
6.668506509E0,2.157244086E-1,-4.666596413E0,1.109695435E-2
6.673328540E0,2.176860571E-1,-4.677699089E0,-5.509662628E-2
6.678150519E0,2.253870368E-1,-4.690274239E0,-9.523868561E-2
6.682972550E0,2.151332498E-1,-4.710286140E0,-1.536965370E-1
6.687794582E0,2.193763852E-1,-4.700694084E0,-2.078447342E-1
6.692616613E0,2.335399389E-1,-4.720062256E0,-2.578077316E-1
6.697438644E0,2.291057706E-1,-4.731427193E0,-2.761082649E-1
6.702260675E0,2.231171131E-1,-4.732350349E0,-3.107066154E-1
6.707082707E0,2.420195341E-1,-4.750411510E0,-3.317184448E-1
6.711904738E0,2.370132506E-1,-4.760488510E0,-3.475942612E-1
6.716726769E0,2.334102988E-1,-4.771018505E0,-3.738818169E-1
6.721548800E0,2.350127697E-1,-4.784446239E0,-3.735232353E-1
6.726370832E0,2.515885234E-1,-4.781685829E0,-3.824038506E-1
6.731192863E0,2.725536227E-1,-4.804658413E0,-4.016699791E-1
6.736014842E0,2.669663429E-1,-4.818705082E0,-4.133830070E-1
6.740836873E0,2.769395709E-1,-4.829914093E0,-4.138884544E-1
6.745658905E0,2.594425380E-1,-4.829979897E0,-4.282565117E-1
6.750480936E0,2.493434548E-1,-4.846479416E0,-4.384679794E-1
6.755302967E0,2.658656836E-1,-4.860362053E0,-4.384655952E-1
6.760124998E0,2.623976767E-1,-4.888431549E0,-4.484958649E-1
6.764947030E0,2.594594061E-1,-4.890170097E0,-4.540681839E-1
6.769769061E0,2.629224658E-1,-4.924169540E0,-4.443960190E-1
6.774591092E0,2.669217288E-1,-4.937953472E0,-4.432358742E-1
6.779413123E0,2.666514218E-1,-4.947192192E0,-4.349088669E-1
6.784235155E0,2.632408440E-1,-4.929280281E0,-4.396138191E-1
6.789057186E0,2.650704980E-1,-4.945293427E0,-4.213476181E-1
6.793879217E0,2.612691522E-1,-4.965429306E0,-4.026999474E-1
6.798701196E0,2.624515891E-1,-4.975436211E0,-3.775672913E-1
6.803523227E0,2.494022250E-1,-4.980219364E0,-3.350586891E-1
6.808345259E0,2.400003970E-1,-4.985859871E0,-2.965631485E-1
6.813167290E0,2.459889054E-1,-4.959059238E0,-2.451725006E-1
6.817989321E0,2.409516573E-1,-4.966890335E0,-1.950993538E-1
6.822811352E0,2.282205820E-1,-4.948477745E0,-1.330690384E-1
6.827633384E0,2.147842050E-1,-4.960143566E0,-7.209968567E-2
6.832455415E0,2.232547104E-1,-4.937477112E0,-1.083850861E-2
6.837277446E0,2.269364297E-1,-4.923582077E0,6.750392914E-2
6.842099477E0,2.197621465E-1,-4.915096760E0,1.248722076E-1
6.846921509E0,2.098543942E-1,-4.912153721E0,1.972608566E-1
6.851743488E0,2.065207362E-1,-4.906514645E0,2.584695816E-1
6.856565519E0,1.844558716E-1,-4.886380672E0,3.098239899E-1
6.861387550E0,1.948599815E-1,-4.860307217E0,3.741626740E-1
6.866209582E0,1.801447868E-1,-4.851161480E0,4.288730621E-1
6.871031613E0,1.808311343E-1,-4.820841312E0,4.752645493E-1
6.875853644E0,1.656274199E-1,-4.797016621E0,5.170269012E-1
6.880675675E0,1.535468698E-1,-4.757129192E0,5.590353012E-1
6.885497707E0,1.492391229E-1,-4.724037170E0,5.894136429E-1
6.890319738E0,1.573640108E-1,-4.693139076E0,6.381464005E-1
6.895141769E0,1.396071315E-1,-4.640666962E0,6.873531342E-1
6.899963800E0,1.282477379E-1,-4.605020046E0,7.287349701E-1
6.904785832E0,1.388162374E-1,-4.569622517E0,7.719459534E-1
6.909607811E0,1.306421757E-1,-4.540502548E0,8.098278046E-1
6.914429842E0,1.229780912E-1,-4.490384102E0,8.568353653E-1
6.919251873E0,1.039928198E-1,-4.431332588E0,9.141855240E-1
6.924073905E0,1.012650728E-1,-4.374232292E0,9.508438110E-1
6.928895936E0,1.125336885E-1,-4.338331699E0,9.943733215E-1
6.933717967E0,9.500175714E-2,-4.297422886E0,1.047198296E0
6.938539998E0,9.545528889E-2,-4.233630657E0,1.114087105E0
6.943362030E0,8.789634705E-2,-4.175752640E0,1.173552513E0
6.948184061E0,8.440789580E-2,-4.117919445E0,1.223239899E0
6.953006092E0,8.776134253E-2,-4.058988571E0,1.282293320E0
6.957828123E0,7.902920246E-2,-4.003767014E0,1.333962440E0
6.962650155E0,8.008041978E-2,-3.946316242E0,1.377061844E0
6.967472134E0,6.963911653E-2,-3.872289896E0,1.407988548E0
6.972294165E0,8.032676578E-2,-3.810449362E0,1.451861382E0
6.977116196E0,8.004596829E-2,-3.730867147E0,1.478744507E0
6.981938227E0,7.626312971E-2,-3.645460129E0,1.514903069E0
6.986760259E0,7.757237554E-2,-3.585312128E0,1.541186333E0
6.991582290E0,7.942232490E-2,-3.520477533E0,1.570710182E0
6.996404321E0,6.287878752E-2,-3.441342115E0,1.592670441E0
7.001226352E0,4.606327415E-2,-3.371664524E0,1.608190536E0
7.006048384E0,5.653133988E-2,-3.300717115E0,1.626831055E0
7.010870415E0,6.448629498E-2,-3.197234631E0,1.656865120E0
7.015692446E0,4.966378212E-2,-3.110154629E0,1.662379265E0
7.020514477E0,5.261170864E-2,-3.027391195E0,1.695923805E0
7.025336457E0,4.585048556E-2,-2.948779345E0,1.719165802E0
7.030158488E0,3.887522221E-2,-2.859865189E0,1.742826462E0
7.034980519E0,2.431440353E-2,-2.761651754E0,1.776390076E0
7.039802550E0,2.830287814E-2,-2.667169094E0,1.801873207E0
7.044624582E0,1.952239871E-2,-2.589309216E0,1.820402145E0
7.049446613E0,1.206219196E-2,-2.505194426E0,1.834324837E0
7.054268644E0,8.847415447E-4,-2.399113417E0,1.860320091E0
7.059090675E0,2.386808395E-3,-2.298367739E0,1.875600815E0
7.063912707E0,-2.324157953E-2,-2.186006308E0,1.871757507E0
7.068734738E0,-2.006283402E-2,-2.091731071E0,1.888195038E0
7.073556769E0,-2.557212114E-2,-1.979443789E0,1.867465973E0
7.078378800E0,-3.527688980E-2,-1.881242275E0,1.859761238E0
7.083200832E0,-4.714864492E-2,-1.774186373E0,1.830356598E0
7.088022863E0,-5.550414324E-2,-1.665253401E0,1.810306549E0
7.092844842E0,-4.988902807E-2,-1.574552298E0,1.787614822E0
7.097666873E0,-5.806529522E-2,-1.473203182E0,1.745530128E0
7.102488905E0,-7.901304960E-2,-1.382533669E0,1.712739944E0
7.107310936E0,-7.832038403E-2,-1.285650969E0,1.666531563E0
7.112132967E0,-8.233165741E-2,-1.199111700E0,1.618878365E0
7.116954998E0,-8.162742853E-2,-1.086871386E0,1.584137917E0
7.121777030E0,-9.657692909E-2,-9.787652493E-1,1.537251472E0
7.126599061E0,-8.050054312E-2,-8.925287724E-1,1.522491455E0
7.131421092E0,-9.318637848E-2,-7.957474589E-1,1.493274689E0
7.136243123E0,-9.611105919E-2,-7.051029205E-1,1.462861061E0
7.141065155E0,-9.755074978E-2,-6.073381305E-1,1.450456619E0
7.145887186E0,-9.972912073E-2,-5.095185041E-1,1.438210487E0
7.150709165E0,-9.040129185E-2,-4.319636822E-1,1.434614182E0
7.155531196E0,-8.955100179E-2,-3.483051062E-1,1.431419373E0
7.160353227E0,-8.852979541E-2,-2.573338747E-1,1.434725761E0
7.165175259E0,-8.343797922E-2,-1.674480438E-1,1.432719231E0
7.169997290E0,-7.024601102E-2,-8.581262827E-2,1.438689232E0
7.174819321E0,-6.535729766E-2,5.434453487E-3,1.427678108E0
7.179641352E0,-7.556802034E-2,7.507789135E-2,1.440484047E0
7.184463384E0,-5.985808372E-2,1.553907394E-1,1.458093643E0
7.189285415E0,-5.372592807E-2,2.281782627E-1,1.473479271E0
7.194107446E0,-6.168574095E-2,2.958285511E-1,1.479598999E0
7.198929477E0,-6.909814477E-2,3.699899316E-1,1.489742279E0
7.203751457E0,-3.745955229E-2,4.314720333E-1,1.515971184E0
7.208573488E0,-5.620035529E-2,5.014740229E-1,1.555988312E0
7.213395519E0,-4.984498024E-2,5.630697012E-1,1.572835922E0
7.218217550E0,-5.296033621E-2,6.135886908E-1,1.595310211E0
7.223039582E0,-7.030442357E-2,6.994726658E-1,1.644993782E0
7.227861613E0,-5.884188414E-2,7.653833628E-1,1.694435120E0
7.232683644E0,-6.411617994E-2,8.372826576E-1,1.753238678E0
7.237505675E0,-7.785478234E-2,9.077699780E-1,1.820240021E0
7.242327707E0,-8.822578192E-2,9.753544927E-1,1.888278008E0
7.247149738E0,-7.639497519E-2,1.062413692E0,1.966912270E0
7.251971769E0,-9.037205577E-2,1.125551224E0,2.048939705E0
7.256793800E0,-9.450814128E-2,1.195544600E0,2.135515213E0
7.261615832E0,-1.155861616E-1,1.287711263E0,2.214640617E0
7.266437863E0,-1.167225540E-1,1.370446682E0,2.285028458E0
7.271259842E0,-1.127159297E-1,1.436450720E0,2.364544868E0
7.276081873E0,-1.468488872E-1,1.504465342E0,2.436322212E0
7.280903905E0,-1.418869197E-1,1.590977430E0,2.495466232E0
7.285725936E0,-1.471099257E-1,1.667016029E0,2.562169075E0
7.290547967E0,-1.628116071E-1,1.756115794E0,2.624287605E0
7.295369998E0,-1.558446586E-1,1.853291750E0,2.667330742E0
7.300192030E0,-1.706970632E-1,1.933179617E0,2.712648392E0
7.305014061E0,-1.764574945E-1,2.017084599E0,2.732565880E0
7.309836092E0,-1.709288955E-1,2.090469360E0,2.749633789E0
7.314658123E0,-1.626142263E-1,2.185438156E0,2.755304337E0
7.319480155E0,-1.623374522E-1,2.280272245E0,2.758957863E0
7.324302134E0,-1.642003953E-1,2.365260601E0,2.752042770E0
7.329124165E0,-1.550492346E-1,2.458228111E0,2.745148659E0
7.333946196E0,-1.599355936E-1,2.537498951E0,2.727333069E0
7.338768227E0,-1.572343409E-1,2.646027565E0,2.710394859E0
7.343590259E0,-1.612024307E-1,2.729966879E0,2.694187164E0
7.348412290E0,-1.430352628E-1,2.827484608E0,2.670177460E0
7.353234321E0,-1.550621092E-1,2.917020559E0,2.643023491E0
7.358056352E0,-1.445466280E-1,2.991343021E0,2.641253471E0
7.362878384E0,-1.386893392E-1,3.066015005E0,2.607374191E0
7.367700415E0,-1.253855824E-1,3.145868778E0,2.583156586E0
7.372522446E0,-1.222903132E-1,3.218878269E0,2.551730156E0
7.377344477E0,-1.231334209E-1,3.291000366E0,2.523741722E0
7.382166457E0,-1.229271591E-1,3.370701790E0,2.494356155E0
7.386988488E0,-1.057716608E-1,3.448421001E0,2.439594269E0
7.391810519E0,-9.418478608E-2,3.515911579E0,2.392915726E0
7.396632550E0,-9.633988142E-2,3.581583500E0,2.338706017E0
7.401454582E0,-8.800810575E-2,3.663390398E0,2.272138596E0
7.406276613E0,-7.378950715E-2,3.730392456E0,2.207571983E0
7.411098644E0,-7.974854112E-2,3.785008430E0,2.130606651E0
7.415920675E0,-7.231637836E-2,3.839370728E0,2.052038193E0
7.420742707E0,-5.732148886E-2,3.891176701E0,1.973055840E0
7.425564738E0,-5.612432957E-2,3.951279640E0,1.873353958E0
7.430386769E0,-4.954278469E-2,3.995902538E0,1.782858849E0
7.435208800E0,-4.344603419E-2,4.049080849E0,1.690836906E0
7.440030832E0,-4.140576720E-2,4.089426517E0,1.596134186E0
7.444852811E0,-3.025418520E-2,4.125402451E0,1.504754066E0
7.449674842E0,-3.997287154E-2,4.175157070E0,1.412010193E0
7.454496873E0,-3.589752316E-2,4.219636440E0,1.316740990E0
7.459318905E0,-8.526831865E-3,4.266072273E0,1.238093376E0
7.464140936E0,4.947870970E-3,4.292035580E0,1.146318436E0
7.468962967E0,-5.171775818E-3,4.326257706E0,1.080876350E0
7.473784998E0,6.342858076E-3,4.348609447E0,1.015548706E0
7.478607030E0,-4.783570766E-3,4.374729156E0,9.348535538E-1
7.483429061E0,9.053736925E-3,4.405935764E0,8.663692474E-1
7.488251092E0,1.771041751E-2,4.423257351E0,7.850666046E-1
7.493073123E0,1.263359189E-2,4.447167873E0,7.292785645E-1
7.497895155E0,2.949437499E-2,4.477733612E0,6.679477692E-1
7.502717134E0,2.263757586E-2,4.494785786E0,6.011638641E-1
7.507539165E0,3.015455604E-2,4.522448540E0,5.397977829E-1
7.512361196E0,2.553158998E-2,4.526034355E0,4.754686356E-1
7.517183227E0,2.996456623E-2,4.526109695E0,4.250116348E-1
7.522005259E0,2.421075106E-2,4.531107426E0,3.478193283E-1
7.526827290E0,1.167774200E-2,4.542354584E0,2.786407471E-1
7.531649321E0,2.562603354E-2,4.558792591E0,2.294836044E-1
7.536471352E0,3.719806671E-2,4.566113949E0,1.812171936E-1
7.541293384E0,3.902125359E-2,4.560939312E0,9.927463531E-2
7.546115415E0,4.777407646E-2,4.556429863E0,5.419635773E-2
7.550937446E0,5.498164892E-2,4.570660591E0,5.998611450E-4
7.555759477E0,4.621750116E-2,4.571428299E0,-3.518199921E-2
7.560581457E0,4.412877560E-2,4.558829308E0,-8.778858185E-2
7.565403488E0,4.389017820E-2,4.559244156E0,-1.237058640E-1
7.570225519E0,3.474187851E-2,4.547621250E0,-1.572666168E-1
7.575047550E0,4.183077812E-2,4.515730381E0,-2.135086060E-1
7.579869582E0,4.009783268E-2,4.511442661E0,-2.362117767E-1
7.584691613E0,3.552091122E-2,4.503650665E0,-2.636585236E-1
7.589513644E0,5.934578180E-2,4.497189522E0,-2.778825760E-1
7.594335675E0,5.063378811E-2,4.490984440E0,-2.907905579E-1
7.599157707E0,3.949365020E-2,4.482642174E0,-2.916164398E-1
7.603979738E0,3.440156579E-2,4.451796055E0,-2.887601852E-1
7.608801769E0,4.035666585E-2,4.432004929E0,-2.917394638E-1
7.613623800E0,4.800480604E-2,4.420907497E0,-2.742242813E-1
7.618445780E0,5.746820569E-2,4.386210442E0,-2.493886948E-1
7.623267811E0,4.503157735E-2,4.364931107E0,-2.375717163E-1
7.628089842E0,4.443153739E-2,4.323673725E0,-2.100296021E-1
7.632911873E0,4.263734818E-2,4.312557697E0,-1.716022491E-1
7.637733905E0,3.998327255E-2,4.286114693E0,-1.378326416E-1
7.642555936E0,5.461862683E-2,4.251490593E0,-9.199810028E-2
7.647377967E0,6.035682559E-2,4.223039150E0,-4.844951630E-2
7.652199998E0,4.670494795E-2,4.176770210E0,-1.238822937E-3
7.657022030E0,4.856455326E-2,4.147250175E0,4.839038849E-2
7.661844061E0,4.567798972E-2,4.102172375E0,1.052103043E-1
7.666666092E0,5.859613419E-2,4.056990623E0,1.691703796E-1
7.671488123E0,4.801437259E-2,4.021157742E0,2.342481613E-1
7.676310102E0,4.270040989E-2,3.969525337E0,3.052053452E-1
7.681132134E0,6.062489748E-2,3.911564350E0,3.855800629E-1
7.685954165E0,3.732651472E-2,3.874614000E0,4.561786652E-1
7.690776196E0,4.805779457E-2,3.835904360E0,5.492658615E-1
7.695598227E0,6.055250764E-2,3.771372318E0,6.396627426E-1
7.700420259E0,6.406319141E-2,3.706044912E0,7.261428833E-1
7.705242290E0,5.609789491E-2,3.656472921E0,8.170118332E-1
7.710064321E0,4.852300882E-2,3.589120626E0,9.241991043E-1
7.714886352E0,4.716348648E-2,3.530117035E0,1.030894279E0
7.719708384E0,4.829096794E-2,3.460218191E0,1.125116348E0
7.724530415E0,3.614768386E-2,3.403112888E0,1.237870216E0
7.729352446E0,3.687399626E-2,3.325238228E0,1.363142014E0
7.734174477E0,3.104326129E-2,3.252808332E0,1.468625069E0
7.738996509E0,2.328243852E-2,3.173674107E0,1.557872772E0
7.743818488E0,1.932382584E-2,3.093649387E0,1.669095993E0
7.748640519E0,2.001345158E-2,3.024538517E0,1.760405540E0
7.753462550E0,1.204639673E-2,2.931565046E0,1.860486031E0
7.758284582E0,9.389460087E-3,2.848093271E0,1.945404053E0
7.763106613E0,-1.080930233E-2,2.772738934E0,2.042626381E0
7.767928644E0,-2.614676952E-2,2.682630777E0,2.124626160E0
7.772750675E0,-2.843368053E-2,2.576511383E0,2.203379631E0
7.777572707E0,-2.866613865E-2,2.502013922E0,2.280063629E0
7.782394738E0,-4.255700111E-2,2.411228895E0,2.346340179E0
7.787216769E0,-5.711400509E-2,2.284956932E0,2.408215523E0
7.792038800E0,-5.925703049E-2,2.218715429E0,2.477670670E0
7.796860832E0,-6.226611137E-2,2.097572803E0,2.541577339E0
7.801682811E0,-7.340276241E-2,1.998053551E0,2.602403641E0
7.806504842E0,-8.188372850E-2,1.903324723E0,2.647074699E0
7.811326873E0,-8.877855539E-2,1.791717172E0,2.698376656E0
7.816148905E0,-9.772479534E-2,1.683679223E0,2.745672226E0
7.820970936E0,-1.061357856E-1,1.565871358E0,2.787843704E0
7.825792967E0,-1.091184616E-1,1.450305581E0,2.832196236E0
7.830614998E0,-1.219888330E-1,1.344097257E0,2.865700722E0
7.835437030E0,-1.218484044E-1,1.229383111E0,2.886127472E0
7.840259061E0,-1.263889670E-1,1.121705055E0,2.916330338E0
7.845081092E0,-1.245595813E-1,9.983789921E-1,2.925373077E0
7.849903123E0,-1.184954047E-1,8.797841668E-1,2.932546616E0
7.854725155E0,-1.126090586E-1,7.720085382E-1,2.933238983E0
7.859547134E0,-1.125548780E-1,6.655442715E-1,2.915653229E0
7.864369217E0,-1.252011955E-1,5.557209253E-1,2.921784401E0
7.869191196E0,-1.144168079E-1,4.283955097E-1,2.893210411E0
7.874013227E0,-1.037327647E-1,3.207476139E-1,2.875517845E0
7.878835259E0,-9.530523419E-2,2.126179934E-1,2.832987785E0
7.883657290E0,-8.169868588E-2,1.054186225E-1,2.806410789E0
7.888479321E0,-7.949376106E-2,2.906322479E-3,2.766009331E0
7.893301352E0,-7.293123007E-2,-9.828758240E-2,2.720283508E0
7.898123384E0,-8.458271623E-2,-1.990746260E-1,2.688462257E0
7.902945415E0,-5.930379033E-2,-2.992285788E-1,2.643136978E0
7.907767446E0,-5.572953820E-2,-4.128452539E-1,2.604716301E0
7.912589477E0,-5.474320054E-2,-4.954305887E-1,2.546964645E0
7.917411509E0,-4.801982641E-2,-5.849521160E-1,2.509395599E0
7.922233540E0,-4.881429672E-2,-6.751284003E-1,2.463338852E0
7.927055519E0,-3.938940167E-2,-7.585815191E-1,2.408825874E0
7.931877550E0,-4.149308801E-2,-8.600739837E-1,2.385303497E0
7.936699582E0,-3.499361873E-2,-9.387142658E-1,2.337758064E0
7.941521613E0,-3.450080752E-2,-1.020434618E0,2.290083885E0
7.946343644E0,-3.198361397E-2,-1.100167274E0,2.252983093E0
7.951165675E0,-3.974705935E-2,-1.187285900E0,2.213242531E0
7.955987707E0,-4.973569512E-2,-1.258752704E0,2.166001320E0
7.960809738E0,-4.445487261E-2,-1.319077849E0,2.126698494E0
7.965631769E0,-6.598153710E-2,-1.399089694E0,2.090437889E0
7.970453800E0,-7.522946596E-2,-1.487764835E0,2.024826050E0
7.975275832E0,-7.003664970E-2,-1.553845763E0,1.976380348E0
7.980097863E0,-8.906972408E-2,-1.620975137E0,1.922215462E0
7.984919894E0,-8.945715427E-2,-1.675817609E0,1.868167877E0
7.989741873E0,-9.057694674E-2,-1.757657051E0,1.815284729E0
7.994563905E0,-1.033275723E-1,-1.824442744E0,1.761012077E0
7.999385936E0,-1.147010922E-1,-1.891616464E0,1.687281609E0
8.004207967E0,-1.009017825E-1,-1.948255539E0,1.644144058E0
8.009029998E0,-1.276747584E-1,-2.024160624E0,1.582429886E0
8.013852030E0,-1.244766712E-1,-2.088096380E0,1.524712563E0
8.018674061E0,-1.414524317E-1,-2.159180641E0,1.481623650E0
8.023496092E0,-1.437469125E-1,-2.214642763E0,1.438684464E0
8.028318123E0,-1.348080039E-1,-2.272346020E0,1.405325890E0
8.033140155E0,-1.300635338E-1,-2.344254494E0,1.367101669E0
8.037962186E0,-1.221297085E-1,-2.402832985E0,1.335857391E0
8.042784217E0,-1.214315891E-1,-2.475518703E0,1.307891846E0
8.047606196E0,-1.408849657E-1,-2.536126137E0,1.280758858E0
8.052428227E0,-1.287895441E-1,-2.619350195E0,1.256776810E0
8.057250259E0,-1.243072450E-1,-2.677320957E0,1.247789383E0
8.062072290E0,-1.163853407E-1,-2.736493826E0,1.217902184E0
8.066894321E0,-1.082796156E-1,-2.811256886E0,1.204128265E0
8.071716352E0,-1.200116277E-1,-2.874188185E0,1.205207825E0
8.076538384E0,-1.130709648E-1,-2.930146694E0,1.182842255E0
8.081360415E0,-1.003357768E-1,-3.003146172E0,1.160929680E0
8.086182446E0,-9.585240483E-2,-3.070658684E0,1.140686989E0
8.091004477E0,-8.519932628E-2,-3.135091782E0,1.141166687E0
8.095826509E0,-1.076311469E-1,-3.218141079E0,1.122934341E0
8.100648540E0,-9.235122800E-2,-3.297232628E0,1.101557732E0
8.105470519E0,-8.713412285E-2,-3.365312576E0,1.077045441E0
8.110292550E0,-9.313806891E-2,-3.436820507E0,1.064921379E0
8.115114634E0,-7.324592769E-2,-3.504826307E0,1.047319412E0
8.119936613E0,-6.817124784E-2,-3.556269169E0,1.018265724E0
8.124758644E0,-7.663975656E-2,-3.640347719E0,1.004123688E0
8.129580675E0,-7.848683000E-2,-3.699837923E0,1.001337051E0
8.134402707E0,-7.381281257E-2,-3.762329102E0,9.764471054E-1
8.139224738E0,-7.227036357E-2,-3.823233366E0,9.642057419E-1
8.144046769E0,-7.052055001E-2,-3.908903599E0,9.574337006E-1
8.148868800E0,-8.185121417E-2,-3.953806877E0,9.502401352E-1
8.153690832E0,-8.846467733E-2,-4.009526253E0,9.534397125E-1
8.158512863E0,-8.348441124E-2,-4.067716122E0,9.562635422E-1
8.163334894E0,-8.149111271E-2,-4.129812717E0,9.492626190E-1
8.168156925E0,-8.506232500E-2,-4.193501472E0,9.480085373E-1
8.172978905E0,-8.724725246E-2,-4.231394291E0,9.549198151E-1
8.177800936E0,-8.475837111E-2,-4.287894249E0,9.497404099E-1
8.182622967E0,-8.377310634E-2,-4.346264839E0,9.384565353E-1
8.187444998E0,-9.290951490E-2,-4.394676208E0,9.247074127E-1
8.192267030E0,-9.676888585E-2,-4.438051224E0,9.013853073E-1
8.197089061E0,-1.038898826E-1,-4.486032963E0,8.816766739E-1
8.201911092E0,-1.205083728E-1,-4.519550323E0,8.596172333E-1
8.206733123E0,-1.180364788E-1,-4.570990086E0,8.268938065E-1
8.211555155E0,-9.900727868E-2,-4.605686665E0,8.026380539E-1
8.216377186E0,-1.148508489E-1,-4.648845196E0,7.761287689E-1
8.221199217E0,-1.166445017E-1,-4.693283558E0,7.366123199E-1
8.226021196E0,-1.069549322E-1,-4.716375351E0,6.948938370E-1
8.230843227E0,-1.084116697E-1,-4.758773327E0,6.629314423E-1
8.235665259E0,-1.006593406E-1,-4.770313263E0,6.216259003E-1
8.240487290E0,-1.051999032E-1,-4.814322948E0,5.876989365E-1
8.245309321E0,-1.208195388E-1,-4.847808361E0,5.564041138E-1
8.250131352E0,-1.246861219E-1,-4.858753681E0,5.157508850E-1
8.254953384E0,-1.275140941E-1,-4.879513264E0,4.753599167E-1
8.259775415E0,-1.123554409E-1,-4.905250549E0,4.483661652E-1
8.264597446E0,-1.294006705E-1,-4.916829109E0,4.287748337E-1
8.269419477E0,-1.174671650E-1,-4.939278603E0,4.022102356E-1
8.274241509E0,-1.229526699E-1,-4.947464943E0,3.579196930E-1
8.279063540E0,-1.242702007E-1,-4.961655140E0,3.389158249E-1
8.283885571E0,-1.222856343E-1,-4.981840611E0,3.105258942E-1
8.288707602E0,-1.181381345E-1,-4.978050709E0,2.834692001E-1
8.293529634E0,-1.223665476E-1,-4.994489670E0,2.493610382E-1
8.298351613E0,-1.263809949E-1,-5.011936188E0,2.404346466E-1
8.303173644E0,-1.312293559E-1,-5.005172729E0,2.016162872E-1
8.307995675E0,-1.115866601E-1,-5.001673222E0,1.604051590E-1
8.312817707E0,-1.055629402E-1,-4.991765499E0,1.406316757E-1
8.317639738E0,-1.130219102E-1,-4.994465828E0,1.171035767E-1
8.322461769E0,-1.062925458E-1,-4.985825539E0,9.696769714E-2
8.327283800E0,-9.003730118E-2,-4.954970360E0,7.534503937E-2
8.332105832E0,-1.011734754E-1,-4.968747139E0,4.500198364E-2
8.336927863E0,-8.705337346E-2,-4.948130608E0,2.857303619E-2
8.341749894E0,-8.461970091E-2,-4.927708626E0,9.230613708E-3
8.346571925E0,-8.667725325E-2,-4.920532227E0,-9.508132935E-3
8.351393957E0,-8.118963242E-2,-4.893034935E0,-3.369045258E-2
8.356215936E0,-8.733060956E-2,-4.858231068E0,-4.549789429E-2
8.361037967E0,-9.672440588E-2,-4.854265690E0,-4.502773285E-2
8.365859998E0,-7.714553177E-2,-4.815285683E0,-6.582450867E-2
8.370682030E0,-8.000624180E-2,-4.800953388E0,-7.569313049E-2
8.375504061E0,-7.547344267E-2,-4.769300461E0,-7.114887238E-2
8.380326092E0,-7.322326303E-2,-4.732192039E0,-6.901836395E-2
8.385148123E0,-9.607133269E-2,-4.681105614E0,-7.299995422E-2
8.389970155E0,-7.483969629E-2,-4.645913124E0,-8.908462524E-2
8.394792186E0,-7.897350192E-2,-4.619220257E0,-7.915687561E-2
8.399614217E0,-8.946731687E-2,-4.565062523E0,-5.527496338E-2
8.404436248E0,-9.572774172E-2,-4.520433426E0,-5.813884735E-2
8.409258280E0,-9.076707065E-2,-4.498366833E0,-5.312824249E-2
8.414080311E0,-8.674916625E-2,-4.460402489E0,-5.830669403E-2
8.418902342E0,-9.572923183E-2,-4.417296410E0,-5.095863342E-2
8.423724321E0,-1.023986638E-1,-4.362930775E0,-5.867576599E-2
8.428546352E0,-9.137901664E-2,-4.339047432E0,-5.639266968E-2
8.433368384E0,-9.036940336E-2,-4.282135963E0,-4.419898987E-2
8.438190415E0,-8.997771144E-2,-4.232800484E0,-4.243946075E-2
8.443012446E0,-9.869095683E-2,-4.163458824E0,-3.917884827E-2
8.447834477E0,-1.059321761E-1,-4.117016315E0,-3.447532654E-2
8.452656509E0,-1.034135520E-1,-4.070777893E0,-2.109241486E-2
8.457478540E0,-1.139944792E-1,-4.019743919E0,-6.300926208E-3
8.462300571E0,-1.258301437E-1,-3.971051931E0,3.954887390E-3
8.467122602E0,-1.246241033E-1,-3.913864136E0,3.478908539E-2
8.471944634E0,-1.212251782E-1,-3.866111279E0,3.606510162E-2
8.476766665E0,-1.275680065E-1,-3.820474386E0,7.114982605E-2
8.481588644E0,-1.270290017E-1,-3.754212379E0,9.704875946E-2
8.486410675E0,-1.279571950E-1,-3.699521780E0,1.317453384E-1
8.491232707E0,-1.290548444E-1,-3.639667988E0,1.753444672E-1
8.496054738E0,-1.362212896E-1,-3.604497194E0,2.315206528E-1
8.500876769E0,-1.183826327E-1,-3.530593634E0,2.597179413E-1
8.505698800E0,-1.160061955E-1,-3.483678341E0,3.066825867E-1
8.510520832E0,-1.229965687E-1,-3.436251402E0,3.498325348E-1
8.515342863E0,-1.343307197E-1,-3.369211912E0,4.060535431E-1
8.520164894E0,-1.199917793E-1,-3.320863008E0,4.563741684E-1
8.524986925E0,-1.133232713E-1,-3.273304224E0,5.177011490E-1
8.529808957E0,-1.236653030E-1,-3.205023289E0,5.662651062E-1
8.534630988E0,-1.196286380E-1,-3.162768841E0,6.142416000E-1
8.539453019E0,-1.093903184E-1,-3.104740858E0,6.821146011E-1
8.544274998E0,-1.094588935E-1,-3.065668583E0,7.532997131E-1
8.549097030E0,-1.100794673E-1,-3.021818161E0,8.160648346E-1
8.553919113E0,-1.205360591E-1,-2.961334705E0,8.813476562E-1
8.558741092E0,-1.167460978E-1,-2.907122850E0,9.373979568E-1
8.563563123E0,-1.176336408E-1,-2.860490561E0,1.025026321E0
8.568385155E0,-1.111017168E-1,-2.793005943E0,1.091827393E0
8.573207186E0,-1.029163301E-1,-2.728718042E0,1.191752434E0
8.578029217E0,-1.049281955E-1,-2.667886972E0,1.279541969E0
8.582851248E0,-1.099418998E-1,-2.603529692E0,1.372091293E0
8.587673280E0,-1.094611585E-1,-2.546654701E0,1.459996223E0
8.592495311E0,-1.142588854E-1,-2.479585886E0,1.570889473E0
8.597317342E0,-1.148004830E-1,-2.414532423E0,1.677389145E0
8.602139373E0,-1.183393300E-1,-2.343366146E0,1.777221680E0
8.606961405E0,-1.333528459E-1,-2.268814564E0,1.901579857E0
8.611783436E0,-1.348460317E-1,-2.189948082E0,1.984795570E0
8.616605415E0,-1.290358007E-1,-2.124995232E0,2.107054710E0
8.621427446E0,-1.423915327E-1,-2.055128574E0,2.216984749E0
8.626249477E0,-1.416978240E-1,-1.963886976E0,2.328967094E0
8.631071509E0,-1.511376500E-1,-1.870679498E0,2.423897743E0
8.635893540E0,-1.506685913E-1,-1.791404486E0,2.522120476E0
8.640715571E0,-1.501229703E-1,-1.703575850E0,2.600905418E0
8.645537602E0,-1.629796326E-1,-1.613447905E0,2.699668884E0
8.650359634E0,-1.691451073E-1,-1.522585034E0,2.790863991E0
8.655181665E0,-1.844767630E-1,-1.405988932E0,2.879193306E0
8.660003696E0,-1.925268769E-1,-1.308209896E0,2.950249672E0
8.664825727E0,-1.792193353E-1,-1.217481613E0,3.008740425E0
8.669647759E0,-1.877207756E-1,-1.112551451E0,3.064148903E0
8.674469790E0,-1.919490695E-1,-1.007931948E0,3.128312111E0
8.679291769E0,-1.861436367E-1,-9.121503830E-1,3.172428131E0
8.684113800E0,-1.847705245E-1,-7.989960313E-1,3.208353996E0
8.688935832E0,-1.770696044E-1,-6.806102395E-1,3.250327110E0
8.693757863E0,-1.810126901E-1,-5.726853609E-1,3.269549370E0
8.698579894E0,-1.750001311E-1,-4.645108879E-1,3.295811653E0
8.703401925E0,-1.686406732E-1,-3.537872136E-1,3.309871674E0
8.708223957E0,-1.736747026E-1,-2.489643693E-1,3.317620277E0
8.713045988E0,-1.648994088E-1,-1.272540092E-1,3.324943542E0
8.717868019E0,-1.671871543E-1,-9.098589420E-3,3.341312408E0
8.722690050E0,-1.433004737E-1,9.840476513E-2,3.335561752E0
8.727512082E0,-1.468024850E-1,2.191338539E-1,3.312417030E0
8.732334113E0,-1.355521679E-1,3.376664519E-1,3.298126221E0
8.737156144E0,-1.189042926E-1,4.420990944E-1,3.263932228E0
8.741978123E0,-1.203827560E-1,5.623366833E-1,3.236088753E0
8.746800155E0,-1.038999856E-1,6.662760973E-1,3.191838264E0
8.751622186E0,-1.014119089E-1,7.850612402E-1,3.151466370E0
8.756444217E0,-8.867633343E-2,8.890098929E-1,3.104189873E0
8.761266248E0,-8.574381471E-2,1.005737782E0,3.053569794E0
8.766088280E0,-8.047062159E-2,1.119830251E0,2.980461121E0
8.770910311E0,-8.336257935E-2,1.220715642E0,2.892047882E0
8.775732342E0,-5.002900958E-2,1.344460607E0,2.806266785E0
8.780554373E0,-4.128202796E-2,1.445765257E0,2.718320847E0
8.785376405E0,-4.146671295E-2,1.545189619E0,2.638972282E0
8.790198436E0,-1.939493418E-2,1.647692204E0,2.543123245E0
8.795020467E0,-1.453813910E-2,1.758237243E0,2.459479332E0
8.799842498E0,-8.969962597E-3,1.862639666E0,2.367722511E0
8.804664530E0,-3.657937050E-4,1.952830434E0,2.270289421E0
8.809486561E0,5.076527596E-4,2.049243450E0,2.171977043E0
8.814308540E0,1.017114520E-2,2.148562193E0,2.074018478E0
8.819130571E0,4.549950361E-3,2.243773699E0,1.980024338E0
8.823952602E0,1.929968596E-2,2.318324566E0,1.875677109E0
8.828774634E0,1.242849231E-2,2.409510612E0,1.786129951E0
8.833596665E0,1.835045218E-2,2.512674332E0,1.698243141E0
8.838418696E0,8.106470108E-3,2.607571602E0,1.609642029E0
8.843240727E0,1.139742136E-2,2.684926271E0,1.533529282E0
8.848062759E0,1.949042082E-2,2.763959885E0,1.437642097E0
8.852884790E0,3.565043211E-2,2.835248709E0,1.354293823E0
8.857706821E0,3.227216005E-2,2.916820526E0,1.276329041E0
8.862528852E0,2.693796158E-2,2.988501787E0,1.182266235E0
8.867350884E0,1.827073097E-2,3.073112726E0,1.110391617E0
8.872172915E0,2.639210224E-2,3.139663935E0,1.024860382E0
8.876994894E0,4.393333197E-2,3.196557283E0,9.567708969E-1
8.881816925E0,4.083240032E-2,3.268939018E0,8.738565445E-1
8.886638957E0,4.566586018E-2,3.332948685E0,8.084287643E-1
8.891460988E0,5.237829685E-2,3.407749176E0,7.318153381E-1
8.896283019E0,5.491542816E-2,3.457493305E0,6.583938599E-1
8.901105050E0,5.556154251E-2,3.507311106E0,5.917654037E-1
8.905927082E0,6.037932634E-2,3.566792965E0,5.427217484E-1
8.910749113E0,7.777458429E-2,3.616688967E0,4.861412048E-1
8.915571144E0,8.152133226E-2,3.670147419E0,4.399948120E-1
8.920393175E0,8.245849609E-2,3.724701405E0,4.030838013E-1
8.925215207E0,8.184301853E-2,3.772000313E0,3.754386902E-1
8.930037238E0,8.349668980E-2,3.809467793E0,3.534421921E-1
8.934859269E0,9.235581756E-2,3.855054379E0,3.287706375E-1
8.939681300E0,8.456492424E-2,3.894260406E0,3.276939392E-1
8.944503280E0,1.081599593E-1,3.935333729E0,3.083562851E-1
8.949325311E0,1.120303869E-1,3.972228050E0,3.126201630E-1
8.954147342E0,1.154804826E-1,4.006033897E0,3.237190247E-1
8.958969373E0,1.306444108E-1,4.050893307E0,3.284482956E-1
8.963791405E0,1.158730984E-1,4.063697338E0,3.196420670E-1
8.968613436E0,1.168135405E-1,4.111227989E0,3.390922546E-1
8.973435467E0,1.289086044E-1,4.144277573E0,3.616123199E-1
8.978257498E0,1.320200562E-1,4.178299427E0,3.740253448E-1
8.983079530E0,1.130954623E-1,4.220257759E0,4.001550674E-1
8.987901561E0,1.189911664E-1,4.236610889E0,4.232254028E-1
8.992723592E0,1.043787301E-1,4.276103973E0,4.478845596E-1
8.997545623E0,1.242834330E-1,4.289676666E0,4.693183899E-1
9.002367655E0,1.263018847E-1,4.303423405E0,5.077276230E-1
9.007189634E0,1.211439371E-1,4.343482494E0,5.414772034E-1
9.012011665E0,1.292743683E-1,4.381028652E0,5.764713287E-1
9.016833696E0,1.136569083E-1,4.391969204E0,6.077966690E-1
9.021655727E0,1.220754683E-1,4.415597439E0,6.424980164E-1
9.026477759E0,1.318009794E-1,4.448182106E0,6.840457916E-1
9.031299790E0,1.188658178E-1,4.462102413E0,7.287368774E-1
9.036121821E0,1.190758646E-1,4.477587700E0,7.645063400E-1
9.040943852E0,1.216637194E-1,4.488417625E0,8.126916885E-1
9.045765884E0,1.156372726E-1,4.520885468E0,8.612680435E-1
9.050587915E0,1.129926443E-1,4.524540901E0,9.160242081E-1
9.055409946E0,1.122881174E-1,4.537594318E0,9.780416489E-1
9.060231977E0,1.194466949E-1,4.547916412E0,1.032820702E0
9.065054009E0,1.056881547E-1,4.551810265E0,1.076652527E0
9.069876040E0,1.102338433E-1,4.551564693E0,1.134512901E0
9.074698071E0,1.007173061E-1,4.581781864E0,1.200317383E0
9.079520050E0,1.044685841E-1,4.564591885E0,1.260746002E0
9.084342082E0,1.094069183E-1,4.557345867E0,1.308540344E0
9.089164113E0,9.265905619E-2,4.567087650E0,1.359119415E0
9.093986144E0,9.237688780E-2,4.568598270E0,1.400411606E0
9.098808175E0,9.165316820E-2,4.566627979E0,1.445493698E0
9.103630207E0,8.560431004E-2,4.558679581E0,1.484686852E0
9.108452238E0,7.055562735E-2,4.547080040E0,1.528670311E0
9.113274269E0,7.733774185E-2,4.532947063E0,1.558218956E0
9.118096300E0,7.250991464E-2,4.533017635E0,1.584092140E0
9.122918332E0,7.988941669E-2,4.511269569E0,1.607372284E0
9.127740363E0,7.426846027E-2,4.492877007E0,1.626886368E0
9.132562394E0,6.639420986E-2,4.462130070E0,1.650895119E0
9.137384425E0,7.050231099E-2,4.439378738E0,1.662678719E0
9.142206457E0,4.839980602E-2,4.417383671E0,1.695698738E0
9.147028436E0,5.384731293E-2,4.375806808E0,1.704529762E0
9.151850519E0,5.219221115E-2,4.338495255E0,1.713094711E0
9.156672498E0,3.988629580E-2,4.298212051E0,1.738129616E0
9.161494530E0,3.364735842E-2,4.266915321E0,1.770112038E0
9.166316561E0,4.435887933E-2,4.217057228E0,1.789958000E0
9.171138592E0,3.136086464E-2,4.154644966E0,1.797761917E0
9.175960623E0,2.469199896E-2,4.097583294E0,1.815111160E0
9.180782655E0,1.611334085E-2,4.041072845E0,1.844477654E0
9.185604686E0,1.521280408E-2,4.005389690E0,1.859633446E0
9.190426717E0,1.858189702E-2,3.936795235E0,1.867915154E0
9.195248748E0,2.162167430E-2,3.872376204E0,1.865864754E0
9.200070780E0,5.290746689E-3,3.824088335E0,1.852425575E0
9.204892811E0,-3.885060549E-3,3.758429050E0,1.843264580E0
9.209714842E0,1.809304953E-2,3.680323362E0,1.838567734E0
9.214536873E0,2.477705479E-2,3.610128880E0,1.828918457E0
9.219358905E0,1.282218099E-2,3.544333458E0,1.798967361E0
9.224180884E0,1.576909423E-2,3.478240490E0,1.765641212E0
9.229002915E0,1.707690954E-2,3.400011539E0,1.741084099E0
9.233824946E0,3.134948015E-2,3.331197023E0,1.713479996E0
9.238646977E0,2.987504005E-2,3.258813620E0,1.675868988E0
9.243469009E0,3.433862329E-2,3.181769371E0,1.646358490E0
9.248291040E0,2.221161127E-2,3.103806257E0,1.635883331E0
9.253113071E0,2.935472131E-2,3.041867733E0,1.601607323E0
9.257935102E0,3.436371684E-2,2.967367172E0,1.584341049E0
9.262757134E0,4.443746805E-2,2.885308743E0,1.550796509E0
9.267579165E0,4.648000002E-2,2.818580389E0,1.532223701E0
9.272401196E0,3.447785974E-2,2.735132217E0,1.508461952E0
9.277223227E0,2.513530850E-2,2.668619156E0,1.477271080E0
9.282045259E0,4.110622406E-2,2.594180107E0,1.460325241E0
9.286867238E0,3.807622194E-2,2.534797907E0,1.436249733E0
9.291689269E0,3.860422969E-2,2.459613562E0,1.413533211E0
9.296511300E0,3.532919288E-2,2.384399652E0,1.376738548E0
9.301333332E0,2.938747406E-2,2.322594404E0,1.346313477E0
9.306155363E0,2.290421724E-2,2.267285585E0,1.302021027E0
9.310977394E0,2.978724241E-2,2.187607527E0,1.273098946E0
9.315799425E0,2.620425820E-2,2.096387148E0,1.238053322E0
9.320621457E0,3.326556087E-2,2.016566515E0,1.199338913E0
9.325443488E0,2.579995990E-2,1.938847303E0,1.153444290E0
9.330265519E0,9.633302689E-3,1.865779519E0,1.120586395E0
9.335087550E0,2.489185333E-2,1.791715503E0,1.095901489E0
9.339909582E0,5.847692490E-3,1.716886640E0,1.051998138E0
9.344731613E0,7.175683975E-3,1.638018966E0,1.026968956E0
9.349553644E0,-9.474933147E-3,1.556577086E0,9.933090210E-1
9.354375675E0,-7.301449776E-3,1.491769552E0,9.723768234E-1
9.359197707E0,-3.406459093E-2,1.409218311E0,9.533157349E-1
9.364019686E0,-2.913582325E-2,1.330603838E0,9.360265732E-1
9.368841717E0,-3.557217121E-2,1.265631914E0,9.334669113E-1
9.373663748E0,-3.076875210E-2,1.196477175E0,9.264373779E-1
9.378485780E0,-3.971391916E-2,1.128111005E0,9.421806335E-1
9.383307811E0,-4.802954197E-2,1.051102400E0,9.412584305E-1
9.388129842E0,-4.256248474E-2,9.798910618E-1,9.533853531E-1
9.392951873E0,-4.239904881E-2,9.050472379E-1,9.664955139E-1
9.397773905E0,-5.588769913E-2,8.348698616E-1,1.010210037E0
9.402595936E0,-8.144325018E-2,7.654162645E-1,1.043984413E0
9.407417967E0,-8.414208889E-2,6.716280580E-1,1.082100868E0
9.412239998E0,-7.694470882E-2,5.953093767E-1,1.126876831E0
9.417062030E0,-6.072673202E-2,5.269008875E-1,1.171072960E0
9.421884061E0,-7.113724947E-2,4.471259415E-1,1.231356621E0
9.426706092E0,-6.846719980E-2,3.643848598E-1,1.292115211E0
9.431528071E0,-7.516568899E-2,2.690653801E-1,1.337760925E0
9.436350102E0,-7.655504346E-2,2.027810216E-1,1.417263985E0
9.441172134E0,-5.807593465E-2,9.489482641E-2,1.473184586E0
9.445994165E0,-7.924738526E-2,1.588386297E-2,1.530601501E0
9.450816196E0,-6.091436744E-2,-1.062628627E-1,1.609807014E0
9.455638227E0,-5.789422989E-2,-1.903983951E-1,1.678483963E0
9.460460259E0,-6.042075157E-2,-2.904775143E-1,1.747377396E0
9.465282290E0,-5.642622709E-2,-3.971255422E-1,1.833201408E0
9.470104321E0,-5.060717463E-2,-4.818685055E-1,1.896493912E0
9.474926352E0,-3.811243176E-2,-5.892412066E-1,1.967164993E0
9.479748384E0,-4.165109992E-2,-7.038425803E-1,2.044007301E0
9.484570415E0,-6.840771437E-2,-8.139376640E-1,2.109096527E0
9.489392446E0,-6.935897470E-2,-9.234102368E-1,2.174423218E0
9.494214477E0,-6.379517913E-2,-1.027747631E0,2.237617493E0
9.499036509E0,-5.182039738E-2,-1.152226925E0,2.305876732E0
9.503858488E0,-5.643004179E-2,-1.262345672E0,2.373233795E0
9.508680519E0,-6.342831254E-2,-1.353680372E0,2.428984642E0
9.513502550E0,-6.703904271E-2,-1.481407166E0,2.480344772E0
9.518324582E0,-7.466429472E-2,-1.577608347E0,2.546481133E0
9.523146613E0,-8.296972513E-2,-1.704643369E0,2.584397316E0
9.527968644E0,-8.512002230E-2,-1.810145855E0,2.615684509E0
9.532790675E0,-8.491265774E-2,-1.926545978E0,2.652338028E0
9.537612707E0,-8.501163125E-2,-2.025412083E0,2.686050415E0
9.542434738E0,-8.808279037E-2,-2.140322208E0,2.702525139E0
9.547256769E0,-8.482921124E-2,-2.224774837E0,2.714971542E0
9.552078800E0,-1.017111540E-1,-2.343489647E0,2.730623245E0
9.556900832E0,-1.078739166E-1,-2.469063282E0,2.735194206E0
9.561722863E0,-1.023074389E-1,-2.570475578E0,2.717993736E0
9.566544894E0,-1.209665537E-1,-2.674150467E0,2.694649696E0
9.571366925E0,-1.065936089E-1,-2.764611721E0,2.667623520E0
9.576188905E0,-1.095029712E-1,-2.871800661E0,2.644154549E0
9.581010936E0,-1.177208424E-1,-2.989690542E0,2.614737511E0
9.585832967E0,-1.037037373E-1,-3.078903913E0,2.580658913E0
9.590654998E0,-1.069400907E-1,-3.170346498E0,2.534774780E0
9.595477030E0,-1.069771647E-1,-3.254603863E0,2.474825859E0
9.600299061E0,-9.175688028E-2,-3.364959717E0,2.425955772E0
9.605121092E0,-9.102225304E-2,-3.473900557E0,2.365532875E0
9.609943123E0,-1.034499109E-1,-3.563360214E0,2.300781250E0
9.614765155E0,-1.084628701E-1,-3.639145851E0,2.240101814E0
9.619587186E0,-1.010791957E-1,-3.731106758E0,2.183559418E0
9.624409217E0,-8.830878139E-2,-3.810353756E0,2.108467102E0
9.629231248E0,-8.189451694E-2,-3.898235798E0,2.032793045E0
9.634053280E0,-8.391278982E-2,-3.968307495E0,1.962542534E0
9.638875311E0,-6.433168054E-2,-4.040645599E0,1.883342743E0
9.643697342E0,-8.151921630E-2,-4.116286755E0,1.823889732E0
9.648519373E0,-6.228667498E-2,-4.184284210E0,1.750688553E0
9.653341352E0,-4.950377345E-2,-4.258786201E0,1.660146713E0
9.658163384E0,-5.133751035E-2,-4.316765785E0,1.595215797E0
9.662985415E0,-4.024362564E-2,-4.377169609E0,1.510403633E0
9.667807446E0,-2.078077197E-2,-4.432566643E0,1.423575401E0
9.672629477E0,-1.916426420E-2,-4.498364449E0,1.356195450E0
9.677451509E0,-1.385214925E-2,-4.522798538E0,1.266250610E0
9.682273540E0,1.261532307E-3,-4.565503597E0,1.182369232E0
9.687095571E0,1.064032316E-3,-4.614295959E0,1.094868660E0
9.691917602E0,1.301607490E-2,-4.649760723E0,1.003577232E0
9.696739634E0,1.677441597E-2,-4.693236351E0,9.203224182E-1
9.701561665E0,2.189365029E-2,-4.727760315E0,8.532981873E-1
9.706383696E0,2.591314912E-2,-4.742442131E0,7.808427811E-1
9.711205727E0,4.298552871E-2,-4.803996086E0,6.932144165E-1
9.716027759E0,5.264854431E-2,-4.818948746E0,6.296701431E-1
9.720849790E0,6.322911382E-2,-4.833847523E0,5.422430038E-1
9.725671821E0,6.379297376E-2,-4.859217167E0,4.689760208E-1
9.730493800E0,6.854856014E-2,-4.886556625E0,4.037055969E-1
9.735315832E0,6.184056401E-2,-4.883408546E0,3.378381729E-1
9.740137863E0,7.328158617E-2,-4.908227921E0,2.747583389E-1
9.744959894E0,8.007308841E-2,-4.908353806E0,2.035713196E-1
9.749781925E0,8.324742317E-2,-4.935044765E0,1.515483856E-1
9.754603957E0,8.507150412E-2,-4.927197933E0,8.619976044E-2
9.759425988E0,8.180233836E-2,-4.950582027E0,3.012561798E-2
9.764248019E0,8.058372140E-2,-4.944063187E0,-2.885532379E-2
9.769070050E0,6.918662786E-2,-4.960242271E0,-8.490753174E-2
9.773892082E0,8.818408847E-2,-4.966707230E0,-1.215047836E-1
9.778714113E0,8.131894469E-2,-4.977774620E0,-1.662979126E-1
9.783536144E0,8.440181613E-2,-4.965970993E0,-2.181806564E-1
9.788358175E0,8.662164211E-2,-4.975453854E0,-2.534127235E-1
9.793180207E0,1.009833813E-1,-4.979876041E0,-2.805123329E-1
9.798002186E0,9.524455667E-2,-4.961303711E0,-3.270730972E-1
9.802824217E0,7.536584139E-2,-4.968753815E0,-3.573141098E-1
9.807646248E0,8.557641506E-2,-4.963960171E0,-3.940329552E-1
9.812468280E0,9.714293480E-2,-4.969584942E0,-4.229979515E-1
9.817290311E0,9.577241540E-2,-4.960521698E0,-4.490561485E-1
9.822112342E0,1.006675661E-1,-4.957124233E0,-4.614863396E-1
9.826934373E0,9.031245112E-2,-4.952232361E0,-4.770631790E-1
9.831756405E0,8.873674273E-2,-4.942245483E0,-4.970154762E-1
9.836578436E0,9.832987189E-2,-4.940343857E0,-5.129694939E-1
9.841400467E0,9.526568651E-2,-4.929799080E0,-5.177617073E-1
9.846222498E0,1.059350669E-1,-4.939269066E0,-5.257663727E-1
9.851044530E0,1.149581671E-1,-4.935326576E0,-5.381112099E-1
