"Time (s)","Gyroscope x (rad/s)","Gyroscope y (rad/s)","Gyroscope z (rad/s)"
2.829296900E-2,-5.345067009E-3,2.832885459E-2,9.162971750E-3
3.070390700E-2,-7.788525894E-3,2.649625950E-2,7.941242307E-3
3.311484400E-2,-1.084284950E-2,2.283107117E-2,5.497782957E-3
3.552578200E-2,-1.572976820E-2,1.794415340E-2,2.443459118E-3
3.793671900E-2,-1.695149764E-2,1.366809942E-2,6.108647794E-4
4.034765700E-2,-2.122755162E-2,9.392046370E-3,0.000000000E0
4.275859400E-2,-2.428187430E-2,5.115992390E-3,-1.832594397E-3
4.516953200E-2,-2.733619884E-2,1.450803829E-3,-1.832594397E-3
4.758046900E-2,-3.161225095E-2,-4.046979360E-3,-3.665188793E-3
4.999145900E-2,-3.466657549E-2,-4.046979360E-3,-4.886918236E-3
5.240239600E-2,-3.711003438E-2,-4.657844082E-3,-6.719512399E-3
5.481333400E-2,-4.077522457E-2,-6.490438245E-3,-9.162971750E-3
5.722427100E-2,-4.505127668E-2,-7.101302966E-3,-1.038470119E-2
5.963520900E-2,-4.688387364E-2,-6.490438245E-3,-1.221729536E-2
6.204614600E-2,-4.932733253E-2,-4.046979360E-3,-1.282816008E-2
6.445708400E-2,-5.115992576E-2,-2.825249685E-3,-1.282816008E-2
6.686802100E-2,-5.360338464E-2,-2.825249685E-3,-1.343902480E-2
6.927895900E-2,-5.482511222E-2,2.290742996E-4,-1.404988952E-2
7.168989600E-2,-5.604684353E-2,2.061668551E-3,-1.466075517E-2
7.410083400E-2,-5.665770918E-2,5.115992390E-3,-1.527161989E-2
7.651177100E-2,-5.482511222E-2,7.559451740E-3,-1.649334840E-2
7.892270900E-2,-5.543597788E-2,1.000291109E-2,-1.588248461E-2
8.133364600E-2,-5.299251899E-2,1.183550525E-2,-1.588248461E-2
8.374458400E-2,-5.115992576E-2,1.488982886E-2,-1.649334840E-2
8.615557300E-2,-5.054906011E-2,1.611155830E-2,-1.527161989E-2
8.856651100E-2,-5.054906011E-2,1.794415340E-2,-1.160643063E-2
9.097744800E-2,-4.688387364E-2,1.916588284E-2,-1.221729536E-2
9.338838600E-2,-4.505127668E-2,1.977674663E-2,-1.038470119E-2
9.579932300E-2,-4.199695215E-2,2.038761228E-2,-9.162971750E-3
9.821026100E-2,-4.199695215E-2,1.977674663E-2,-7.941242307E-3
1.006211980E-1,-4.138609022E-2,1.855501719E-2,-6.108647678E-3
1.030321360E-1,-4.077522457E-2,1.794415340E-2,-6.719512399E-3
1.054430730E-1,-4.077522457E-2,1.794415340E-2,-6.108647678E-3
1.078540110E-1,-4.077522457E-2,1.672242396E-2,-6.108647678E-3
1.102649480E-1,-4.077522457E-2,1.550069358E-2,-7.330377586E-3
1.126758860E-1,-4.199695215E-2,1.488982886E-2,-6.719512399E-3
1.150868750E-1,-4.077522457E-2,1.366809942E-2,-6.719512399E-3
1.174978130E-1,-4.382954910E-2,1.244636998E-2,-7.330377586E-3
1.199087500E-1,-4.382954910E-2,1.183550525E-2,-8.552107029E-3
1.223196880E-1,-4.749473557E-2,9.392046370E-3,-8.552107029E-3
1.247306250E-1,-4.810560122E-2,1.000291109E-2,-7.941242307E-3
1.271415630E-1,-4.932733253E-2,8.170315996E-3,-8.552107029E-3
1.295525000E-1,-4.993819445E-2,7.559451740E-3,-9.773836471E-3
1.319634380E-1,-5.238165334E-2,6.337722298E-3,-1.038470119E-2
1.343743750E-1,-5.299251899E-2,5.115992390E-3,-1.221729536E-2
1.367853130E-1,-5.421425030E-2,3.283398226E-3,-1.404988952E-2
1.391962500E-1,-5.421425030E-2,2.672533505E-3,-1.466075517E-2
1.416071880E-1,-5.360338464E-2,2.672533505E-3,-1.404988952E-2
1.440181250E-1,-5.360338464E-2,2.061668551E-3,-1.466075517E-2
1.464291150E-1,-5.421425030E-2,2.061668551E-3,-1.527161989E-2
1.488400000E-1,-5.238165334E-2,2.672533505E-3,-1.588248461E-2
1.512509900E-1,-5.360338464E-2,4.505127668E-3,-1.649334840E-2
1.536619270E-1,-5.482511222E-2,6.337722298E-3,-1.710421406E-2
1.560728650E-1,-5.482511222E-2,1.000291109E-2,-1.954767294E-2
1.584838020E-1,-5.421425030E-2,1.122464053E-2,-2.076940238E-2
1.608947400E-1,-5.726857483E-2,1.122464053E-2,-2.199113183E-2
1.633056770E-1,-5.787943676E-2,1.305723470E-2,-2.321286127E-2
1.657166150E-1,-5.910116807E-2,1.183550525E-2,-2.382372692E-2
1.681275520E-1,-5.849030241E-2,1.183550525E-2,-2.260199748E-2
1.705384900E-1,-5.971203372E-2,1.122464053E-2,-2.199113183E-2
1.729494270E-1,-5.910116807E-2,1.061377581E-2,-2.260199748E-2
1.753603650E-1,-5.787943676E-2,1.000291109E-2,-2.260199748E-2
1.777713540E-1,-5.726857483E-2,9.392046370E-3,-2.199113183E-2
1.801822920E-1,-5.604684353E-2,9.392046370E-3,-2.321286127E-2
1.825932290E-1,-5.421425030E-2,8.781181648E-3,-2.138026804E-2
1.850041670E-1,-5.177079141E-2,1.000291109E-2,-2.138026804E-2
1.874151040E-1,-5.177079141E-2,1.061377581E-2,-2.015853859E-2
1.898260420E-1,-4.993819445E-2,1.244636998E-2,-2.015853859E-2
1.922369790E-1,-4.810560122E-2,1.366809942E-2,-1.893680729E-2
1.946479170E-1,-4.688387364E-2,1.794415340E-2,-1.710421406E-2
1.970588540E-1,-4.627300799E-2,1.855501719E-2,-1.527161989E-2
1.994697920E-1,-4.199695215E-2,2.160934173E-2,-1.527161989E-2
2.018807290E-1,-4.138609022E-2,2.222020552E-2,-1.343902480E-2
2.042916670E-1,-4.077522457E-2,2.405280061E-2,-1.343902480E-2
2.067026040E-1,-3.772090003E-2,2.588539571E-2,-1.466075517E-2
2.091135420E-1,-3.833176568E-2,2.466366626E-2,-1.404988952E-2
2.115245320E-1,-3.344484791E-2,2.527453005E-2,-1.221729536E-2
2.139354690E-1,-2.977965772E-2,2.466366626E-2,-1.099556591E-2
2.163464070E-1,-2.733619884E-2,2.283107117E-2,-9.773836471E-3
2.187573440E-1,-2.428187430E-2,2.038761228E-2,-9.773836471E-3
2.211682820E-1,-2.183841541E-2,1.794415340E-2,-7.941242307E-3
2.235792190E-1,-2.000582218E-2,1.488982886E-2,-6.108647678E-3
2.259901570E-1,-1.695149764E-2,1.244636998E-2,-5.497782957E-3
2.284010940E-1,-1.695149764E-2,8.781181648E-3,-6.108647678E-3
2.308120320E-1,-1.328630932E-2,5.115992390E-3,-5.497782957E-3
2.332229690E-1,-1.267544460E-2,2.672533505E-3,-6.108647678E-3
2.356339070E-1,-1.023198478E-2,1.450803829E-3,-6.719512399E-3
2.380448440E-1,-8.399390616E-3,2.290742996E-4,-6.719512399E-3
2.404558340E-1,-5.345067009E-3,2.290742996E-4,-6.108647678E-3
2.428667710E-1,-2.901607659E-3,2.290742996E-4,-6.719512399E-3
2.452777090E-1,1.985310577E-3,2.672533505E-3,-5.497782957E-3
2.476886460E-1,5.039634649E-3,5.726857111E-3,-4.886918236E-3
2.500995840E-1,8.093958721E-3,1.183550525E-2,-5.497782957E-3
2.525105210E-1,1.237001177E-2,1.794415340E-2,-4.276053514E-3
2.549214590E-1,1.664606482E-2,2.405280061E-2,-3.054323839E-3
2.573323960E-1,1.970038936E-2,2.893971838E-2,-2.443459118E-3
2.597433340E-1,2.275471389E-2,3.199404106E-2,-1.221729559E-3
2.621542710E-1,2.519817278E-2,3.688096255E-2,-6.108647794E-4
2.645652090E-1,2.641990222E-2,3.688096255E-2,6.108647794E-4
2.669761460E-1,2.825249545E-2,3.810269013E-2,2.443459118E-3
2.693870840E-1,3.130681813E-2,4.054614902E-2,3.054323839E-3
2.717980730E-1,3.008509055E-2,3.749182448E-2,4.276053514E-3
2.742090110E-1,3.252854943E-2,3.443750367E-2,4.276053514E-3
2.766199480E-1,3.436114267E-2,3.382663801E-2,3.665188793E-3
2.790308860E-1,3.558287397E-2,3.138317913E-2,4.276053514E-3
2.814418230E-1,3.680460155E-2,3.016144782E-2,6.108647678E-3
2.838527610E-1,3.863719851E-2,2.893971838E-2,6.108647678E-3
2.862636980E-1,4.046979174E-2,2.955058403E-2,7.941242307E-3
2.886746360E-1,4.046979174E-2,2.832885459E-2,8.552107029E-3
2.910855730E-1,4.169152305E-2,3.077231348E-2,9.773836471E-3
2.934965110E-1,4.169152305E-2,3.199404106E-2,9.773836471E-3
2.959074480E-1,4.291325063E-2,3.504836559E-2,1.099556591E-2
2.983183860E-1,4.352411628E-2,4.054614902E-2,1.099556591E-2
3.007293230E-1,4.474584386E-2,4.421133921E-2,1.099556591E-2
3.031403130E-1,4.535670951E-2,4.848739132E-2,1.099556591E-2
3.055512500E-1,4.352411628E-2,5.215258151E-2,1.038470119E-2
3.079621880E-1,4.474584386E-2,5.581776798E-2,1.038470119E-2
3.103731250E-1,4.596757516E-2,5.948295817E-2,9.162971750E-3
3.127840630E-1,4.596757516E-2,6.314814836E-2,1.038470119E-2
3.151950000E-1,4.718930274E-2,6.375901401E-2,1.038470119E-2
3.176059380E-1,4.841103405E-2,6.559160352E-2,9.162971750E-3
3.200168750E-1,4.718930274E-2,6.681333482E-2,7.941242307E-3
3.224278130E-1,4.657844082E-2,6.559160352E-2,6.719512399E-3
3.248387500E-1,4.474584386E-2,6.498073786E-2,4.886918236E-3
3.272496880E-1,4.413498193E-2,6.192641705E-2,4.276053514E-3
3.296606250E-1,4.291325063E-2,5.703949928E-2,1.221729559E-3
3.320715630E-1,4.108065739E-2,5.154171586E-2,6.108647794E-4
3.344825520E-1,3.863719851E-2,4.482220486E-2,-1.832594397E-3
3.368934900E-1,3.619373962E-2,3.749182448E-2,-2.443459118E-3
3.393044270E-1,3.497200832E-2,3.016144782E-2,-4.886918236E-3
3.417153650E-1,3.130681813E-2,1.977674663E-2,-6.719512399E-3
3.441263020E-1,2.825249545E-2,1.061377581E-2,-6.108647678E-3
3.465372400E-1,2.764163166E-2,3.894262947E-3,-7.941242307E-3
3.489481770E-1,2.336557768E-2,-2.214384731E-3,-9.162971750E-3
3.513591150E-1,2.092211880E-2,-8.323032409E-3,-9.162971750E-3
3.537700520E-1,1.847865991E-2,-1.259908639E-2,-1.038470119E-2
3.561809900E-1,1.725693047E-2,-1.626427472E-2,-1.160643063E-2
3.585919270E-1,1.481347065E-2,-1.870773360E-2,-1.343902480E-2
3.610028650E-1,1.298087649E-2,-1.992946304E-2,-1.343902480E-2
3.634138540E-1,1.114828233E-2,-2.054032870E-2,-1.282816008E-2
3.658247920E-1,9.315688163E-3,-2.115119249E-2,-1.343902480E-2
3.682357290E-1,9.926552884E-3,-1.931859925E-2,-1.282816008E-2
3.706466670E-1,9.926552884E-3,-1.809686981E-2,-1.282816008E-2
3.730576040E-1,8.704823442E-3,-1.687514037E-2,-1.160643063E-2
3.754685420E-1,8.704823442E-3,-1.504254527E-2,-1.099556591E-2
3.778794790E-1,9.926552884E-3,-1.320995111E-2,-1.099556591E-2
3.802904170E-1,8.704823442E-3,-1.198822167E-2,-1.038470119E-2
3.827013540E-1,9.926552884E-3,-7.712167688E-3,-7.941242307E-3
3.851122920E-1,8.093958721E-3,-8.323032409E-3,-6.719512399E-3
3.875232290E-1,9.315688163E-3,-5.268708803E-3,-6.719512399E-3
3.899341670E-1,9.315688163E-3,-3.436114406E-3,-7.330377586E-3
3.923451040E-1,9.315688163E-3,8.399390499E-4,-7.941242307E-3
3.947560420E-1,8.093958721E-3,1.450803829E-3,-7.330377586E-3
3.971670320E-1,1.053741761E-2,2.672533505E-3,-8.552107029E-3
3.995779690E-1,1.175914705E-2,5.115992390E-3,-8.552107029E-3
4.019889070E-1,1.114828233E-2,7.559451740E-3,-9.162971750E-3
4.043998440E-1,1.175914705E-2,8.781181648E-3,-8.552107029E-3
4.068107820E-1,1.175914705E-2,1.061377581E-2,-7.941242307E-3
4.092217190E-1,1.237001177E-2,1.122464053E-2,-6.108647678E-3
4.116326570E-1,1.481347065E-2,1.427896414E-2,-7.330377586E-3
4.140435940E-1,1.542433538E-2,1.488982886E-2,-7.941242307E-3
4.164545320E-1,1.603520103E-2,1.611155830E-2,-9.773836471E-3
4.188654690E-1,1.481347065E-2,1.488982886E-2,-1.099556591E-2
4.212764070E-1,1.603520103E-2,1.550069358E-2,-1.343902480E-2
4.236873440E-1,1.603520103E-2,1.427896414E-2,-1.282816008E-2
4.260983340E-1,1.725693047E-2,1.122464053E-2,-1.282816008E-2
4.285092710E-1,1.908952370E-2,7.559451740E-3,-1.343902480E-2
4.309202090E-1,2.397644334E-2,6.948587019E-3,-1.343902480E-2
4.333311460E-1,2.580903657E-2,3.894262947E-3,-1.466075517E-2
4.357420840E-1,2.947422490E-2,2.061668551E-3,-1.527161989E-2
4.381530210E-1,3.558287397E-2,1.450803829E-3,-1.710421406E-2
4.405639590E-1,3.802633286E-2,2.061668551E-3,-1.954767294E-2
4.429748960E-1,4.046979174E-2,2.672533505E-3,-2.138026804E-2
4.453858340E-1,4.352411628E-2,4.505127668E-3,-2.260199748E-2
4.477967710E-1,4.535670951E-2,8.170315996E-3,-2.260199748E-2
4.502077090E-1,4.474584386E-2,1.427896414E-2,-2.138026804E-2
4.526186460E-1,4.291325063E-2,2.038761228E-2,-1.954767294E-2
4.550295840E-1,4.230238497E-2,2.588539571E-2,-1.832594350E-2
4.574405730E-1,3.863719851E-2,3.260490671E-2,-1.710421406E-2
4.598515110E-1,3.619373962E-2,3.993528336E-2,-1.466075517E-2
4.622624480E-1,3.497200832E-2,4.360047355E-2,-1.404988952E-2
4.646733860E-1,3.252854943E-2,4.726566374E-2,-1.221729536E-2
4.670843230E-1,2.886336111E-2,4.970912263E-2,-9.162971750E-3
4.694952610E-1,2.580903657E-2,4.970912263E-2,-6.719512399E-3
4.719061980E-1,2.519817278E-2,4.970912263E-2,-2.443459118E-3
4.743171360E-1,2.153298259E-2,4.665479809E-2,6.108647794E-4
4.767280730E-1,1.970038936E-2,4.360047355E-2,3.054323839E-3
4.791390110E-1,1.908952370E-2,4.176788032E-2,6.719512399E-3
4.815499480E-1,1.542433538E-2,3.749182448E-2,1.038470119E-2
4.839608860E-1,1.359174121E-2,3.016144782E-2,1.221729536E-2
4.863718230E-1,1.237001177E-2,2.527453005E-2,1.404988952E-2
4.887828130E-1,1.175914705E-2,1.977674663E-2,1.588248461E-2
4.911937500E-1,1.053741761E-2,1.366809942E-2,1.832594350E-2
4.936046880E-1,9.926552884E-3,5.726857111E-3,1.954767294E-2
4.960156250E-1,8.704823442E-3,-9.926552884E-4,2.076940238E-2
4.984265630E-1,9.315688163E-3,-7.712167688E-3,2.076940238E-2
5.008375000E-1,9.315688163E-3,-1.198822167E-2,2.015853859E-2
5.032484380E-1,8.704823442E-3,-1.748600416E-2,1.832594350E-2
5.056593750E-1,9.926552884E-3,-2.237292193E-2,1.649334840E-2
5.080703130E-1,9.315688163E-3,-2.725984156E-2,1.404988952E-2
5.104812500E-1,8.704823442E-3,-3.031416424E-2,1.466075517E-2
5.128921880E-1,9.926552884E-3,-3.336848691E-2,1.221729536E-2
5.153031770E-1,9.926552884E-3,-3.642281145E-2,1.038470119E-2
5.177141150E-1,1.114828233E-2,-3.764454275E-2,7.941242307E-3
5.201250520E-1,1.114828233E-2,-3.764454275E-2,6.108647678E-3
5.225359900E-1,1.237001177E-2,-3.642281145E-2,4.886918236E-3
5.249469270E-1,1.481347065E-2,-3.397935256E-2,2.443459118E-3
5.273578650E-1,1.603520103E-2,-3.214675933E-2,1.221729559E-3
5.297688020E-1,1.908952370E-2,-2.848157100E-2,-6.108647794E-4
5.321797400E-1,2.092211880E-2,-2.603811212E-2,-2.443459118E-3
5.345906770E-1,2.458730713E-2,-2.176205814E-2,-1.832594397E-3
5.370016150E-1,2.703076601E-2,-1.687514037E-2,-1.832594397E-3
5.394125520E-1,3.130681813E-2,-1.259908639E-2,-2.443459118E-3
5.418234900E-1,3.313941509E-2,-9.544761851E-3,-4.276053514E-3
5.442344270E-1,3.436114267E-2,-7.101302966E-3,-4.276053514E-3
5.466454170E-1,3.619373962E-2,-5.268708803E-3,-4.886918236E-3
5.490563540E-1,3.497200832E-2,-4.657844082E-3,-4.886918236E-3
5.514672920E-1,3.313941509E-2,-4.046979360E-3,-6.108647678E-3
5.538782290E-1,3.069595434E-2,-5.268708803E-3,-6.108647678E-3
5.562891670E-1,2.825249545E-2,-5.268708803E-3,-4.276053514E-3
5.587001040E-1,2.519817278E-2,-6.490438245E-3,-6.719512399E-3
5.611110420E-1,2.031125315E-2,-5.879573524E-3,-7.941242307E-3
5.635219790E-1,1.542433538E-2,-7.101302966E-3,-7.941242307E-3
5.659329170E-1,1.175914705E-2,-7.101302966E-3,-7.941242307E-3
5.683438540E-1,8.093958721E-3,-7.101302966E-3,-8.552107029E-3
5.707547920E-1,5.039634649E-3,-5.879573524E-3,-9.773836471E-3
5.731657290E-1,4.428769462E-3,-2.825249685E-3,-1.038470119E-2
5.755766670E-1,3.207040019E-3,-3.817904799E-4,-9.162971750E-3
5.779876570E-1,3.207040019E-3,2.061668551E-3,-7.330377586E-3
5.803985940E-1,3.207040019E-3,2.061668551E-3,-7.330377586E-3
5.828095320E-1,3.817904973E-3,6.948587019E-3,-6.108647678E-3
5.852204690E-1,5.039634649E-3,1.061377581E-2,-4.276053514E-3
5.876314070E-1,6.261364091E-3,1.305723470E-2,-1.221729559E-3
5.900423440E-1,8.704823442E-3,1.794415340E-2,-2.443459118E-3
5.924532820E-1,9.926552884E-3,2.160934173E-2,-1.221729559E-3
5.948642190E-1,1.237001177E-2,2.405280061E-2,-1.221729559E-3
5.972751570E-1,1.298087649E-2,2.710712515E-2,-1.221729559E-3
5.996860940E-1,1.481347065E-2,2.771798894E-2,-6.108647794E-4
6.020970320E-1,1.603520103E-2,2.893971838E-2,0.000000000E0
6.045079690E-1,1.542433538E-2,2.710712515E-2,1.221729559E-3
6.069189070E-1,1.603520103E-2,2.649625950E-2,6.108647794E-4
6.093298960E-1,1.603520103E-2,2.283107117E-2,6.108647794E-4
6.117408340E-1,1.481347065E-2,2.099847607E-2,0.000000000E0
6.141517710E-1,1.237001177E-2,1.794415340E-2,-6.108647794E-4
6.165627090E-1,1.053741761E-2,1.488982886E-2,-1.221729559E-3
6.189736460E-1,6.872228812E-3,1.183550525E-2,-1.832594397E-3
6.213845840E-1,3.207040019E-3,1.000291109E-2,-2.443459118E-3
6.237955210E-1,-1.679878100E-3,5.726857111E-3,-2.443459118E-3
6.262064590E-1,-7.177661173E-3,5.115992390E-3,-3.054323839E-3
6.286173960E-1,-1.267544460E-2,3.894262947E-3,-1.221729559E-3
6.310283340E-1,-1.695149764E-2,2.061668551E-3,-1.832594397E-3
6.334392710E-1,-2.122755162E-2,2.290742996E-4,-2.443459118E-3
6.358502610E-1,-2.733619884E-2,-3.817904799E-4,-3.054323839E-3
6.382611460E-1,-3.405570984E-2,-1.603520010E-3,-3.665188793E-3
6.406721360E-1,-3.894263133E-2,-2.825249685E-3,-3.054323839E-3
6.430830730E-1,-4.321868345E-2,-4.046979360E-3,-3.665188793E-3
6.454940110E-1,-4.688387364E-2,-4.046979360E-3,-3.054323839E-3
6.479049480E-1,-4.871646687E-2,-3.436114406E-3,-1.832594397E-3
6.503158860E-1,-5.421425030E-2,-4.657844082E-3,-1.221729559E-3
6.527268230E-1,-5.421425030E-2,-2.214384731E-3,-6.108647794E-4
6.551377610E-1,-5.726857483E-2,-9.926552884E-4,1.832594397E-3
6.575486980E-1,-5.787943676E-2,2.061668551E-3,1.832594397E-3
6.599596360E-1,-5.849030241E-2,3.894262947E-3,4.886918236E-3
6.623705730E-1,-6.032289565E-2,6.948587019E-3,6.719512399E-3
6.647815630E-1,-6.032289565E-2,8.781181648E-3,8.552107029E-3
6.671925000E-1,-6.154462695E-2,1.183550525E-2,8.552107029E-3
6.696034380E-1,-6.032289565E-2,1.672242396E-2,1.099556591E-2
6.720143750E-1,-6.093376130E-2,1.916588284E-2,1.282816008E-2
6.744253130E-1,-5.971203372E-2,2.222020552E-2,1.466075517E-2
6.768362500E-1,-6.093376130E-2,2.344193682E-2,1.527161989E-2
6.792471880E-1,-6.032289565E-2,2.588539571E-2,1.588248461E-2
6.816581250E-1,-6.032289565E-2,2.527453005E-2,1.710421406E-2
6.840690630E-1,-6.032289565E-2,2.588539571E-2,1.771507785E-2
6.864800000E-1,-6.032289565E-2,2.527453005E-2,1.832594350E-2
6.888909380E-1,-6.093376130E-2,2.588539571E-2,1.710421406E-2
6.913018750E-1,-6.154462695E-2,2.588539571E-2,1.649334840E-2
6.937128130E-1,-6.337722391E-2,2.222020552E-2,1.710421406E-2
6.961238020E-1,-6.520981342E-2,2.160934173E-2,1.588248461E-2
6.985347400E-1,-6.826414168E-2,2.038761228E-2,1.588248461E-2
7.009456770E-1,-7.070759684E-2,1.977674663E-2,1.527161989E-2
7.033566150E-1,-7.498364896E-2,1.672242396E-2,1.588248461E-2
7.057675520E-1,-7.925970852E-2,1.550069358E-2,1.404988952E-2
7.081784900E-1,-8.292489499E-2,1.488982886E-2,1.160643063E-2
7.105894270E-1,-8.720094711E-2,1.366809942E-2,9.162971750E-3
7.130003650E-1,-9.025526792E-2,1.366809942E-2,7.941242307E-3
7.154113020E-1,-9.392046183E-2,1.122464053E-2,6.108647678E-3
7.178222400E-1,-9.758564830E-2,1.122464053E-2,5.497782957E-3
7.202331770E-1,-1.018617004E-1,9.392046370E-3,2.443459118E-3
7.226441150E-1,-1.049160287E-1,8.170315996E-3,1.832594397E-3
7.250551040E-1,-1.085812151E-1,5.726857111E-3,0.000000000E0
7.274660420E-1,-1.104138121E-1,3.894262947E-3,-1.221729559E-3
7.298769790E-1,-1.122464016E-1,-9.926552884E-4,-1.221729559E-3
7.322879170E-1,-1.134681329E-1,-5.268708803E-3,-3.054323839E-3
7.346988540E-1,-1.153007299E-1,-9.544761851E-3,-1.832594397E-3
7.371097920E-1,-1.153007299E-1,-1.504254527E-2,-1.832594397E-3
7.395207290E-1,-1.159115955E-1,-1.870773360E-2,-3.054323839E-3
7.419316670E-1,-1.171333194E-1,-2.481638081E-2,-3.054323839E-3
7.443426040E-1,-1.153007299E-1,-3.031416424E-2,-3.665188793E-3
7.467535420E-1,-1.153007299E-1,-3.520108387E-2,-4.276053514E-3
7.491644790E-1,-1.153007299E-1,-3.886627033E-2,-4.276053514E-3
7.515754170E-1,-1.122464016E-1,-4.314232618E-2,-4.276053514E-3
7.539864070E-1,-1.128572673E-1,-4.680751264E-2,-4.276053514E-3
7.563973440E-1,-1.110246703E-1,-4.802924395E-2,-3.665188793E-3
7.588082820E-1,-1.104138121E-1,-4.986183718E-2,-4.886918236E-3
7.612192190E-1,-1.104138121E-1,-5.108356848E-2,-4.886918236E-3
7.636301570E-1,-1.098029464E-1,-5.169443041E-2,-6.108647678E-3
7.660410940E-1,-1.073594838E-1,-5.047270283E-2,-6.108647678E-3
7.684520320E-1,-1.049160287E-1,-4.925097153E-2,-7.330377586E-3
7.708629690E-1,-1.030834317E-1,-4.558578506E-2,-7.330377586E-3
7.732739070E-1,-1.006399691E-1,-4.192059487E-2,-6.719512399E-3
7.756848440E-1,-9.636391699E-2,-3.886627033E-2,-6.719512399E-3
7.780957820E-1,-9.208786488E-2,-3.459021822E-2,-6.108647678E-3
7.805067190E-1,-8.781181276E-2,-2.909243479E-2,-5.497782957E-3
7.829177090E-1,-8.292489499E-2,-2.298378758E-2,-3.054323839E-3
7.853286460E-1,-7.864884287E-2,-1.687514037E-2,-4.276053514E-3
7.877395840E-1,-7.437278330E-2,-1.259908639E-2,-3.665188793E-3
7.901505210E-1,-7.070759684E-2,-6.490438245E-3,-3.665188793E-3
7.925614590E-1,-6.520981342E-2,-1.603520010E-3,-3.665188793E-3
7.949723960E-1,-6.398808211E-2,1.450803829E-3,-2.443459118E-3
7.973833340E-1,-6.093376130E-2,4.505127668E-3,-1.832594397E-3
7.997942710E-1,-5.849030241E-2,7.559451740E-3,6.108647794E-4
8.022052090E-1,-5.665770918E-2,9.392046370E-3,1.832594397E-3
8.046161460E-1,-5.299251899E-2,1.183550525E-2,3.665188793E-3
8.070270840E-1,-5.421425030E-2,1.366809942E-2,4.886918236E-3
8.094380210E-1,-5.238165334E-2,1.366809942E-2,6.719512399E-3
8.118490110E-1,-5.054906011E-2,1.550069358E-2,5.497782957E-3
8.142599480E-1,-4.993819445E-2,1.550069358E-2,7.330377586E-3
8.166708860E-1,-4.871646687E-2,1.366809942E-2,7.330377586E-3
8.190818230E-1,-4.627300799E-2,1.488982886E-2,8.552107029E-3
8.214927610E-1,-4.505127668E-2,1.366809942E-2,1.038470119E-2
8.239036980E-1,-4.260781780E-2,1.244636998E-2,1.160643063E-2
8.263146360E-1,-4.077522457E-2,1.061377581E-2,1.221729536E-2
8.287255730E-1,-4.016435891E-2,1.000291109E-2,1.343902480E-2
8.311365110E-1,-3.894263133E-2,8.781181648E-3,1.588248461E-2
8.335474480E-1,-3.711003438E-2,1.000291109E-2,1.710421406E-2
8.359583860E-1,-3.711003438E-2,1.061377581E-2,1.649334840E-2
8.383693230E-1,-3.649916872E-2,1.244636998E-2,1.954767294E-2
8.407803130E-1,-3.527744114E-2,1.427896414E-2,1.832594350E-2
8.431912500E-1,-3.405570984E-2,1.488982886E-2,2.015853859E-2
8.456021880E-1,-3.222311661E-2,1.733328775E-2,1.832594350E-2
8.480131250E-1,-3.100138716E-2,1.672242396E-2,1.954767294E-2
8.504240630E-1,-2.977965772E-2,1.672242396E-2,1.893680729E-2
8.528350000E-1,-3.161225095E-2,1.488982886E-2,1.771507785E-2
8.552459380E-1,-2.855792828E-2,1.366809942E-2,1.649334840E-2
8.576568750E-1,-2.611446939E-2,1.061377581E-2,1.527161989E-2
8.600678130E-1,-2.550360374E-2,7.559451740E-3,1.404988952E-2
8.624787500E-1,-2.489273995E-2,5.726857111E-3,1.343902480E-2
8.648896880E-1,-2.428187430E-2,-3.817904799E-4,1.099556591E-2
8.673006250E-1,-2.244928107E-2,-2.825249685E-3,9.162971750E-3
8.697116150E-1,-2.306014486E-2,-5.268708803E-3,7.941242307E-3
8.721225520E-1,-2.550360374E-2,-8.933897130E-3,7.941242307E-3
8.745334900E-1,-2.428187430E-2,-1.198822167E-2,5.497782957E-3
8.769444270E-1,-2.244928107E-2,-1.504254527E-2,3.054323839E-3
8.793553650E-1,-2.183841541E-2,-1.504254527E-2,2.443459118E-3
8.817663020E-1,-2.244928107E-2,-1.626427472E-2,1.832594397E-3
8.841772400E-1,-2.061668597E-2,-1.687514037E-2,6.108647794E-4
8.865881770E-1,-1.939495653E-2,-1.565340906E-2,-6.108647794E-4
8.889991150E-1,-1.817322709E-2,-1.687514037E-2,6.108647794E-4
8.914100520E-1,-1.634063199E-2,-1.504254527E-2,1.221729559E-3
8.938209900E-1,-1.206457894E-2,-1.382081583E-2,3.665188793E-3
8.962319790E-1,-8.399390616E-3,-1.076649129E-2,6.108647678E-3
8.986429170E-1,-7.177661173E-3,-9.544761851E-3,7.941242307E-3
9.010538540E-1,-3.512472380E-3,-5.268708803E-3,9.773836471E-3
9.034647920E-1,1.527161949E-4,-2.825249685E-3,1.343902480E-2
9.058757290E-1,4.428769462E-3,5.115992390E-3,1.710421406E-2
9.082866670E-1,8.704823442E-3,1.305723470E-2,2.138026804E-2
9.106976040E-1,1.298087649E-2,2.344193682E-2,2.565632015E-2
9.131085420E-1,1.970038936E-2,3.565923125E-2,2.809977904E-2
9.155194790E-1,2.764163166E-2,4.787652567E-2,3.176496923E-2
9.179304170E-1,3.436114267E-2,5.887209252E-2,3.420842811E-2
9.203413540E-1,4.902189970E-2,7.292198390E-2,3.909534588E-2
9.227522920E-1,6.612611562E-2,8.819360286E-2,4.276053607E-2
9.251632290E-1,8.200860023E-2,1.046869531E-1,4.642572254E-2
9.275742190E-1,9.850194305E-2,1.193477064E-1,4.886918142E-2
9.299851570E-1,1.131627038E-1,1.340084672E-1,4.886918142E-2
9.323960940E-1,1.302669197E-1,1.498909444E-1,4.764745384E-2
9.348070320E-1,1.443168074E-1,1.651625633E-1,4.825831577E-2
9.372179690E-1,1.595884264E-1,1.822667718E-1,5.009091273E-2
9.396289070E-1,1.742491722E-1,1.987601221E-1,5.375609919E-2
9.420398440E-1,1.876882017E-1,2.140317410E-1,5.864302069E-2
9.444507820E-1,2.035706937E-1,2.299142331E-1,6.536252797E-2
9.468617190E-1,2.225074917E-1,2.482401729E-1,6.963858753E-2
9.492726570E-1,2.396117151E-1,2.690095901E-1,7.391463965E-2
9.516835940E-1,2.561050653E-1,2.879463732E-1,7.880155742E-2
9.540945840E-1,2.719875574E-1,3.019962609E-1,8.429934084E-2
9.565055210E-1,2.829830945E-1,3.026071489E-1,9.529490769E-2
9.589164590E-1,2.952004075E-1,3.032180071E-1,1.001818255E-1
9.613273960E-1,3.061959743E-1,3.050506115E-1,1.026252806E-1
9.637383340E-1,3.159697950E-1,3.013854027E-1,1.069013327E-1
9.661492710E-1,3.245218992E-1,2.983310819E-1,1.166751757E-1
9.685602090E-1,3.318522871E-1,2.958876193E-1,1.301141977E-1
9.709711460E-1,3.385718167E-1,2.916115820E-1,1.466075480E-1
9.733820840E-1,3.452913165E-1,2.928332984E-1,1.661552191E-1
9.757930210E-1,3.483456373E-1,2.928332984E-1,1.875354946E-1
9.782039590E-1,3.526217043E-1,2.983310819E-1,2.101374865E-1
9.806148960E-1,3.538434207E-1,3.105483949E-1,2.290742993E-1
9.830258860E-1,3.581194878E-1,3.245982826E-1,2.480110973E-1
9.854368230E-1,3.654498458E-1,3.465894163E-1,2.626718581E-1
9.878477610E-1,3.807214797E-1,3.673588037E-1,2.638935745E-1
9.902586980E-1,4.082103968E-1,4.015672207E-1,2.461785078E-1
9.926696360E-1,4.564687014E-1,4.498255551E-1,2.229656428E-1
9.950805730E-1,5.132791400E-1,5.041925311E-1,2.015853822E-1
9.974915110E-1,5.804742575E-1,5.646681190E-1,1.844811589E-1
9.999024480E-1,6.458367705E-1,6.233111620E-1,1.704312712E-1
1.002313386E0,7.124210596E-1,6.837867498E-1,1.612683088E-1
1.004724323E0,7.771727443E-1,7.454841137E-1,1.557705253E-1
1.007135261E0,8.400917649E-1,8.096249104E-1,1.508836001E-1
1.009546198E0,8.987348080E-1,8.737657070E-1,1.508836001E-1
1.011957188E0,9.524909258E-1,9.397391081E-1,1.527161896E-1
1.014368125E0,1.004414439E0,1.007545114E0,1.576031148E-1
1.016779063E0,1.050840139E0,1.077183723E0,1.631008983E-1
1.019190000E0,1.095433235E0,1.146211386E0,1.716530025E-1
1.021600938E0,1.135750294E0,1.216460824E0,1.832594275E-1
1.024011875E0,1.174234867E0,1.286099434E0,1.936441362E-1
1.026422813E0,1.207832336E0,1.352683663E0,2.052505612E-1
1.028833750E0,1.243873358E0,1.415602803E0,2.174678594E-1
1.031244688E0,1.276860118E0,1.471802354E0,2.290742993E-1
1.033655625E0,1.311068535E0,1.518838882E0,2.394589931E-1
1.036066563E0,1.350774765E0,1.552436471E0,2.504545450E-1
1.038477500E0,1.392924428E0,1.571373343E0,2.596175373E-1
1.040888490E0,1.441793561E0,1.571984172E0,2.693913579E-1
1.043299427E0,1.496160507E0,1.555490851E0,2.785543501E-1
1.045710365E0,1.558468819E0,1.520671487E0,2.864955962E-1
1.048121302E0,1.625663877E0,1.464471936E0,2.938259542E-1
1.050532240E0,1.698356748E0,1.391779065E0,2.999345958E-1
1.052943177E0,1.777769208E0,1.300760150E0,3.060432673E-1
1.055354115E0,1.862068534E0,1.195691466E0,3.121519089E-1
1.057765052E0,1.949422240E0,1.083292365E0,3.182605505E-1
1.060175990E0,2.033721685E0,9.623411298E-1,3.231474757E-1
1.062586927E0,2.116799116E0,8.407790065E-1,3.292561173E-1
1.064997865E0,2.200487614E0,7.137191296E-1,3.353647590E-1
1.067408854E0,2.279289246E0,5.860484242E-1,3.402516842E-1
1.069819792E0,2.356868982E0,4.559341967E-1,3.439168632E-1
1.072230729E0,2.431394577E0,3.239873946E-1,3.481929302E-1
1.074641667E0,2.503476620E0,1.908188909E-1,3.518581092E-1
1.077052604E0,2.573725939E0,5.765036494E-2,3.543015718E-1
1.079463542E0,2.642753839E0,-7.429642975E-2,3.567450345E-1
1.081874479E0,2.706894636E0,-2.074649483E-1,3.597993553E-1
1.084285417E0,2.769813538E0,-3.388008773E-1,3.622428179E-1
1.086696354E0,2.828456640E0,-4.707476795E-1,3.628536761E-1
1.089107292E0,2.885267019E0,-5.984184146E-1,3.634645343E-1
1.091518229E0,2.937190533E0,-7.254782915E-1,3.634645343E-1
1.093929167E0,2.985448837E0,-8.488729596E-1,3.622428179E-1
1.096340157E0,3.030041933E0,-9.698241949E-1,3.604102135E-1
1.098751094E0,3.070358992E0,-1.089553714E0,3.585776389E-1
1.101162032E0,3.104567528E0,-1.203785419E0,3.543015718E-1
1.103572969E0,3.136943340E0,-1.313741088E0,3.506363928E-1
1.105983907E0,3.163821459E0,-1.420031548E0,3.457494676E-1
1.108394844E0,3.185812473E0,-1.522045970E0,3.420842886E-1
1.110805782E0,3.206581831E0,-1.619173408E0,3.359756172E-1
1.113216719E0,3.220021009E0,-1.710803151E0,3.298669755E-1
1.115627657E0,3.228573084E0,-1.796935081E0,3.231474757E-1
1.118038594E0,3.231627464E0,-1.876347542E0,3.170388341E-1
1.120449532E0,3.231627464E0,-1.949040413E0,3.072649837E-1
1.122860521E0,3.224297047E0,-2.015624762E0,2.999345958E-1
1.125271459E0,3.209636211E0,-2.076100349E0,2.889390290E-1
1.127682396E0,3.183979988E0,-2.129245520E0,2.803869247E-1
1.130093334E0,3.157101870E0,-2.170784235E0,2.706131041E-1
1.132504271E0,3.128391266E0,-2.207436323E0,2.620609999E-1
1.134915209E0,3.093571901E0,-2.233703375E0,2.510654330E-1
1.137326146E0,3.053865671E0,-2.252640247E0,2.412915826E-1
1.139737084E0,3.013548613E0,-2.261192322E0,2.315177470E-1
1.142148021E0,2.965901136E0,-2.262413979E0,2.193004489E-1
1.144558959E0,2.915810347E0,-2.252029419E0,2.076940238E-1
1.146969896E0,2.848615170E0,-2.245309830E0,1.973093301E-1
1.149380886E0,1.983630657E0,-2.074267626E0,1.838703007E-1
1.151791823E0,1.642768145E0,-2.011348724E0,1.832594275E-1
1.154202761E0,1.560912251E0,-1.958203435E0,1.808159798E-1
1.156613698E0,1.551138401E0,-1.917886376E0,1.789833754E-1
1.159024636E0,1.579238176E0,-1.886121392E0,1.722638607E-1
1.161435573E0,1.607948780E0,-1.854967237E0,1.649334878E-1
1.163846511E0,1.635437727E0,-1.816482782E0,1.606574357E-1
1.166257448E0,1.655596256E0,-1.770667911E0,1.563813835E-1
1.168668386E0,1.680641770E0,-1.717522740E0,1.490510106E-1
1.171079323E0,1.707519770E0,-1.664988279E0,1.459966749E-1
1.173490261E0,1.732565284E0,-1.604512691E0,1.417206228E-1
1.175901250E0,1.753334641E0,-1.534263253E0,1.337793916E-1
1.178312188E0,1.780212641E0,-1.463402987E0,1.282816082E-1
1.180723125E0,1.805868983E0,-1.387044787E0,1.252272725E-1
1.183134063E0,1.831525326E0,-1.300912857E0,1.178968996E-1
1.185545000E0,1.855349064E0,-1.211726665E0,1.117882580E-1
1.187955938E0,1.884059668E0,-1.117653489E0,1.075121984E-1
1.190366875E0,1.909105182E0,-1.019304276E0,1.014035568E-1
1.192777813E0,1.934761524E0,-9.136246443E-1,9.651663154E-2
1.195188750E0,1.959806919E0,-8.055015802E-1,9.224057943E-2
1.197599688E0,1.989739299E0,-6.949350238E-1,8.735366166E-2
1.200010625E0,2.015395641E0,-5.776489973E-1,8.185587823E-2
1.202421563E0,2.041662693E0,-4.560869038E-1,8.002328873E-2
1.204832500E0,2.070984364E0,-3.369682729E-1,7.513637096E-2
1.207243490E0,2.098473310E0,-2.160170525E-1,7.024945319E-2
1.209654427E0,2.123518705E0,-9.323323518E-2,6.841685623E-2
1.212065365E0,2.150396824E0,2.832885459E-2,6.597339362E-2
1.214476302E0,2.180329084E0,1.474474818E-1,6.291907281E-2
1.216887240E0,2.205374479E0,2.665661275E-1,6.169734150E-2
1.219298177E0,2.230420113E0,3.838521540E-1,5.986474827E-2
1.221709115E0,2.256076336E0,4.980838597E-1,5.803215504E-2
1.224120052E0,2.286008835E0,6.080395579E-1,5.681042373E-2
1.226530990E0,2.307389021E0,7.161626220E-1,5.742128938E-2
1.228941927E0,2.333045244E0,8.200095892E-1,5.864302069E-2
1.231352865E0,2.357479811E0,9.177479744E-1,5.803215504E-2
1.233763854E0,2.383136272E0,1.014264584E0,5.986474827E-2
1.236174792E0,2.404516459E0,1.101618290E0,6.169734150E-2
1.238585729E0,2.428951025E0,1.183474183E0,6.230820715E-2
1.240996667E0,2.450331450E0,1.257388830E0,6.597339362E-2
1.243407604E0,2.471711636E0,1.325194836E0,6.841685623E-2
1.245818542E0,2.490648508E0,1.385059476E0,7.147117704E-2
1.248229479E0,2.510807037E0,1.436982989E0,7.635809481E-2
1.250640417E0,2.529132843E0,1.479132652E0,8.185587823E-2
1.253051354E0,2.547458887E0,1.515173674E0,8.613193035E-2
1.255462292E0,2.564563036E0,1.540219188E0,9.101885557E-2
1.257873229E0,2.579834700E0,1.556712508E0,9.773836285E-2
1.260284167E0,2.595106363E0,1.565264583E0,1.032361463E-1
1.262695157E0,2.608545303E0,1.565264583E0,1.093447953E-1
1.265106094E0,2.621373415E0,1.556101680E0,1.160643101E-1
1.267517032E0,2.634812593E0,1.538997412E0,1.227838174E-1
1.269927969E0,2.645197153E0,1.513341188E0,1.288924664E-1
1.272338907E0,2.654971123E0,1.479132652E0,1.362228394E-1
1.274749844E0,2.663523197E0,1.437593937E0,1.417206228E-1
1.277160782E0,2.672686100E0,1.388113856E0,1.490510106E-1
1.279571719E0,2.680627346E0,1.333136082E0,1.545487940E-1
1.281982657E0,2.685514212E0,1.268995166E0,1.618791670E-1
1.284393594E0,2.692233801E0,1.198745728E0,1.685986817E-1
1.286804532E0,2.696509838E0,1.121165991E0,1.747073233E-1
1.289215521E0,2.699564219E0,1.038699150E0,1.814268380E-1
1.291626459E0,2.702007532E0,9.495129585E-1,1.875354946E-1
1.294037396E0,2.704451084E0,8.566614985E-1,1.936441362E-1
1.296448334E0,2.705672741E0,7.577013969E-1,1.991419196E-1
1.298859271E0,2.707505465E0,6.538543701E-1,2.040288299E-1
1.301270209E0,2.706894636E0,5.463421941E-1,2.089157552E-1
1.303681146E0,2.705061913E0,4.345539212E-1,2.144135386E-1
1.306092084E0,2.703229427E0,3.191004992E-1,2.180787325E-1
1.308503021E0,2.701396704E0,2.018144578E-1,2.211330533E-1
1.310913959E0,2.698342562E0,8.025235683E-2,2.241873741E-1
1.313324896E0,2.691622972E0,-4.314232618E-2,2.266308367E-1
1.315735834E0,2.689179420E0,-1.683696061E-1,2.309068888E-1
1.318146823E0,2.683681726E0,-2.935968935E-1,2.327394783E-1
1.320557761E0,2.676962137E0,-4.200458825E-1,2.339612097E-1
1.322968698E0,2.669631720E0,-5.471057892E-1,2.345720828E-1
1.325379636E0,2.661690474E0,-6.729438901E-1,2.351829410E-1
1.327790573E0,2.653138399E0,-7.969494462E-1,2.351829410E-1
1.330201511E0,2.644586325E0,-9.197332859E-1,2.345720828E-1
1.332612448E0,2.634201527E0,-1.040073633E0,2.351829410E-1
1.335023386E0,2.622595310E0,-1.157359719E0,2.327394783E-1
1.337434323E0,2.611599684E0,-1.269758821E0,2.302960157E-1
1.339845261E0,2.599382401E0,-1.379103541E0,2.278525680E-1
1.342256250E0,2.588386774E0,-1.482950568E0,2.254091054E-1
1.344667188E0,2.573725939E0,-1.580078125E0,2.223547846E-1
1.347078125E0,2.559676170E0,-1.671707869E0,2.180787325E-1
1.349489063E0,2.544404507E0,-1.759061456E0,2.131918073E-1
1.351900000E0,2.528522015E0,-1.836641312E0,2.083048970E-1
1.354310938E0,2.513250351E0,-1.908112526E0,2.028071135E-1
1.356721875E0,2.497978687E0,-1.969809890E0,1.973093301E-1
1.359132813E0,2.480874538E0,-2.025398493E0,1.918115467E-1
1.361543750E0,2.463159561E0,-2.071824312E0,1.857028902E-1
1.363954688E0,2.444833517E0,-2.110308647E0,1.783725172E-1
1.366365625E0,2.426507711E0,-2.139630318E0,1.716530025E-1
1.368776563E0,2.407570839E0,-2.158566952E0,1.643226296E-1
1.371187552E0,2.388633966E0,-2.168951750E0,1.588248461E-1
1.373598490E0,2.369086266E0,-2.170173407E0,1.502727419E-1
1.376009427E0,2.347095251E0,-2.162232161E0,1.429423541E-1
1.378420365E0,2.326325893E0,-2.146349669E0,1.350011230E-1
1.380831302E0,2.307999849E0,-2.121915102E0,1.276707351E-1
1.383242240E0,2.285397768E0,-2.086484909E0,1.197294965E-1
1.385653177E0,2.265239239E0,-2.044335365E0,1.123991162E-1
1.388064115E0,2.244469881E0,-1.993633509E0,1.038470119E-1
1.390475052E0,2.222478867E0,-1.935601354E0,9.712749720E-2
1.392885990E0,2.201709270E0,-1.869017124E0,9.040798992E-2
1.395296927E0,2.179107428E0,-1.796935081E0,8.307760954E-2
1.397707917E0,2.158338070E0,-1.716300964E0,7.574722916E-2
1.400118854E0,2.135125160E0,-1.629558206E0,6.902772188E-2
1.402529792E0,2.114966631E0,-1.536706686E0,6.230820715E-2
1.404940729E0,2.091142893E0,-1.439579248E0,5.619955808E-2
1.407351667E0,2.067929983E0,-1.336953878E0,4.886918142E-2
1.409762604E0,2.047160625E0,-1.230663419E0,4.337139800E-2
1.412173542E0,2.025780439E0,-1.118264318E0,3.726275265E-2
1.414584479E0,2.003178358E0,-1.004643440E0,3.237583488E-2
1.416995417E0,1.982408881E0,-8.879683018E-1,2.687804960E-2
1.419406354E0,1.961028695E0,-7.676279545E-1,2.260199748E-2
1.421817292E0,1.940259218E0,-6.466767192E-1,1.771507785E-2
1.424228282E0,1.918879032E0,-5.245037675E-1,1.343902480E-2
1.426639219E0,1.896887898E0,-4.029416740E-1,1.038470119E-2
1.429050157E0,1.876118422E0,-2.801578641E-1,6.719512399E-3
1.431461094E0,1.855349064E0,-1.573740393E-1,3.054323839E-3
1.433872032E0,1.835801363E0,-3.581194952E-2,6.108647794E-4
1.436282969E0,1.813810229E0,8.330668509E-2,0.000000000E0
1.438693907E0,1.794873476E0,2.018144578E-1,-3.054323839E-3
1.441104844E0,1.775936604E0,3.148244321E-1,-4.886918236E-3
1.443515782E0,1.756388903E0,4.266127050E-1,-6.719512399E-3
1.445926719E0,1.735008717E0,5.341249108E-1,-6.719512399E-3
1.448337657E0,1.716682792E0,6.361393332E-1,-7.941242307E-3
1.450748594E0,1.699578524E0,7.375428677E-1,-8.552107029E-3
1.453159584E0,1.680641770E0,8.303943276E-1,-6.719512399E-3
1.455570521E0,1.661704898E0,9.201914072E-1,-6.719512399E-3
1.457981459E0,1.644600749E0,1.002047300E0,-6.108647678E-3
1.460392396E0,1.626274705E0,1.079627156E0,-4.276053514E-3
1.462803334E0,1.609170556E0,1.150487423E0,-4.276053514E-3
1.465214271E0,1.592066288E0,1.214017391E0,-3.665188793E-3
1.467625209E0,1.575572968E0,1.270827770E0,-6.108647794E-4
1.470036146E0,1.559079647E0,1.322140455E0,2.443459118E-3
1.472447084E0,1.541975379E0,1.363068342E0,4.276053514E-3
1.474858021E0,1.527314663E0,1.399109364E0,6.719512399E-3
1.477269011E0,1.511432171E0,1.425987482E0,9.773836471E-3
1.479679896E0,1.496160507E0,1.445535183E0,1.221729536E-2
1.482090886E0,1.480278134E0,1.456530690E0,1.588248461E-2
1.484501823E0,1.466228127E0,1.460195899E0,2.076940238E-2
1.486912761E0,1.454010844E0,1.456530690E0,2.199113183E-2
1.489323698E0,1.438739300E0,1.443702579E0,2.565632015E-2
1.491734636E0,1.426522017E0,1.423544049E0,2.871064469E-2
1.494145573E0,1.411861181E0,1.394833326E0,3.298669681E-2
1.496556511E0,1.399033070E0,1.359403253E0,3.787361458E-2
1.498967448E0,1.387426615E0,1.316642642E0,4.214967042E-2
1.501378386E0,1.376431108E0,1.267162681E0,4.520399496E-2
1.503789323E0,1.363602877E0,1.208519578E0,4.764745384E-2
1.506200313E0,1.353218198E0,1.146822214E0,5.131264031E-2
1.508611250E0,1.344666123E0,1.078405380E0,5.497783050E-2
1.511022188E0,1.331837893E0,1.003269076E0,5.986474827E-2
1.513433125E0,1.321453214E0,9.226348996E-1,6.352993846E-2
1.515844063E0,1.311679363E0,8.371137977E-1,6.719512492E-2
1.518255000E0,1.303738117E0,7.473167181E-1,7.147117704E-2
1.520665938E0,1.293964267E0,6.556869745E-1,7.513637096E-2
1.523076875E0,1.285412192E0,5.585594773E-1,7.880155742E-2
1.525487813E0,1.278081894E0,4.589885175E-1,8.002328873E-2
1.527898750E0,1.271362305E0,3.588066995E-1,8.429934084E-2
1.530309688E0,1.262810230E0,2.561814189E-1,8.674279600E-2
1.532720677E0,1.256701589E0,1.523344070E-1,8.918625861E-2
1.535131615E0,1.249981999E0,4.909825698E-2,9.224057943E-2
1.537542552E0,1.245705962E0,-5.535962060E-2,9.590577334E-2
1.539953490E0,1.238986492E0,-1.592066288E-1,9.773836285E-2
1.542364427E0,1.233488679E0,-2.642753720E-1,9.896009415E-2
1.544775365E0,1.229823470E0,-3.656789362E-1,9.957095981E-2
1.547186302E0,1.224325776E0,-4.670824707E-1,1.020144150E-1
1.549597240E0,1.218827963E0,-5.666534305E-1,1.050687432E-1
1.552008177E0,1.215162754E0,-6.625592113E-1,1.050687432E-1
1.554419115E0,1.212719321E0,-7.572432756E-1,1.062904745E-1
1.556830052E0,1.209054112E0,-8.470403552E-1,1.069013327E-1
1.559241042E0,1.204778075E0,-9.356157780E-1,1.081230640E-1
1.561651979E0,1.202334642E0,-1.020525932E0,1.075121984E-1
1.564062917E0,1.199280262E0,-1.100549221E0,1.075121984E-1
1.566473854E0,1.196836829E0,-1.178739905E0,1.081230640E-1
1.568884792E0,1.194393396E0,-1.250821948E0,1.069013327E-1
1.571295729E0,1.191339016E0,-1.319238901E0,1.056796089E-1
1.573706667E0,1.190117359E0,-1.383379698E0,1.050687432E-1
1.576117604E0,1.187673807E0,-1.443855286E0,1.032361463E-1
1.578528542E0,1.185230374E0,-1.497611403E0,1.020144150E-1
1.580939479E0,1.182786942E0,-1.546480536E0,1.007926911E-1
1.583350417E0,1.182176113E0,-1.590462804E0,9.957095981E-2
1.585761407E0,1.179732561E0,-1.629558206E0,9.712749720E-2
1.588172344E0,1.177899957E0,-1.664377451E0,9.590577334E-2
1.590583282E0,1.176067472E0,-1.692477226E0,9.285144508E-2
1.592994219E0,1.174234867E0,-1.715690136E0,9.040798992E-2
1.595405157E0,1.171791315E0,-1.729740024E0,8.735366166E-2
1.597816094E0,1.170569658E0,-1.740124702E0,8.552107215E-2
1.600227032E0,1.168737054E0,-1.745011568E0,8.185587823E-2
1.602637969E0,1.166293621E0,-1.743178964E0,7.819069177E-2
1.605048907E0,1.165071845E0,-1.735237718E0,7.513637096E-2
1.607459844E0,1.162017584E0,-1.719966173E0,7.269290835E-2
1.609870834E0,1.159574032E0,-1.700418472E0,6.841685623E-2
1.612281771E0,1.158352375E0,-1.674151301E0,6.536252797E-2
1.614692709E0,1.155297995E0,-1.641775489E0,6.169734150E-2
1.617103646E0,1.151632786E0,-1.603901863E0,5.803215504E-2
1.619514584E0,1.151021957E0,-1.560530424E0,5.558869615E-2
1.621925521E0,1.147356749E0,-1.511050344E0,5.253437161E-2
1.624336459E0,1.144913316E0,-1.456072569E0,4.764745384E-2
1.626747396E0,1.141858935E0,-1.396818638E0,4.398226365E-2
1.629158334E0,1.136972070E0,-1.333288789E0,4.092793912E-2
1.631569271E0,1.132696033E0,-1.265482783E0,3.665188700E-2
1.633980209E0,1.130252600E0,-1.193400741E0,3.420842811E-2
1.636391146E0,1.124143958E0,-1.119486094E0,2.932151034E-2
1.638802136E0,1.120478749E0,-1.038851857E0,2.626718581E-2
1.641213073E0,1.116202712E0,-9.594395161E-1,2.321286127E-2
1.643624011E0,1.111315727E0,-8.751401305E-1,1.893680729E-2
1.646034948E0,1.106428862E0,-7.883973718E-1,1.527161989E-2
1.648445886E0,1.100931048E0,-7.010436654E-1,1.282816008E-2
1.650856823E0,1.094211578E0,-6.143009067E-1,9.773836471E-3
1.653267761E0,1.087491989E0,-5.263363719E-1,6.719512399E-3
1.655678698E0,1.081994295E0,-4.347066581E-1,4.276053514E-3
1.658089636E0,1.075885534E0,-3.449095190E-1,1.221729559E-3
1.660500573E0,1.069776893E0,-2.557232678E-1,-6.108647794E-4
1.662911511E0,1.061835647E0,-1.659261435E-1,-2.443459118E-3
1.665322500E0,1.054505348E0,-7.673988491E-2,-4.886918236E-3
1.667733438E0,1.045953274E0,9.392046370E-3,-6.719512399E-3
1.670144375E0,1.037401080E0,9.735657275E-2,-7.941242307E-3
1.672555313E0,1.028849006E0,1.828776449E-1,-9.162971750E-3
1.674966250E0,1.019685984E0,2.653443813E-1,-1.160643063E-2
1.677377188E0,1.010523081E0,3.478111327E-1,-1.221729536E-2
1.679788125E0,1.001971006E0,4.272235632E-1,-1.343902480E-2
1.682199063E0,9.909753799E-1,5.054142475E-1,-1.588248461E-2
1.684610000E0,9.805907011E-1,5.817723274E-1,-1.588248461E-2
1.687020938E0,9.695951343E-1,6.538543701E-1,-1.527161989E-2
1.689431875E0,9.604321718E-1,7.241038084E-1,-1.649334840E-2
1.691842865E0,9.469931126E-1,7.919098139E-1,-1.588248461E-2
1.694253802E0,9.366084337E-1,8.572723866E-1,-1.649334840E-2
1.696664740E0,9.231693745E-1,9.183588624E-1,-1.588248461E-2
1.699075677E0,9.097303748E-1,9.782235622E-1,-1.588248461E-2
1.701486615E0,8.950695992E-1,1.031979680E0,-1.588248461E-2
1.703897552E0,8.822414875E-1,1.083292365E0,-1.710421406E-2
1.706308490E0,8.669698238E-1,1.131550670E0,-1.527161989E-2
1.708719427E0,8.510873318E-1,1.174311161E0,-1.404988952E-2
1.711130365E0,8.345940113E-1,1.215239167E0,-1.466075517E-2
1.713541302E0,8.187115192E-1,1.251891017E0,-1.282816008E-2
1.715952292E0,8.016073108E-1,1.283045053E0,-1.221729536E-2
1.718363229E0,7.851139307E-1,1.311755776E0,-1.160643063E-2
1.720774167E0,7.649554014E-1,1.333136082E0,-9.162971750E-3
1.723185104E0,7.472403646E-1,1.353294611E0,-8.552107029E-3
1.725596042E0,7.264709473E-1,1.366122723E0,-6.719512399E-3
1.728006979E0,7.050906420E-1,1.373453140E0,-6.108647678E-3
1.730417917E0,6.837103963E-1,1.377118230E0,-4.886918236E-3
1.732828854E0,6.629409790E-1,1.375285745E0,-3.665188793E-3
1.735239792E0,6.403390169E-1,1.369177103E0,-6.108647794E-4
1.737650729E0,6.171261668E-1,1.358792305E0,1.221729559E-3
1.740061667E0,5.920807123E-1,1.342298985E0,2.443459118E-3
1.742472657E0,5.676460862E-1,1.320918679E0,4.276053514E-3
1.744883594E0,5.426006317E-1,1.293429852E0,6.108647678E-3
1.747294532E0,5.169443488E-1,1.262886524E0,8.552107029E-3
1.749705469E0,4.894554019E-1,1.226845503E0,1.038470119E-2
1.752116407E0,4.625773430E-1,1.187139392E0,1.282816008E-2
1.754527344E0,4.375318885E-1,1.144989729E0,1.404988952E-2
1.756938282E0,4.094321132E-1,1.096120477E0,1.649334840E-2
1.759349219E0,3.807214797E-1,1.047251344E0,1.710421406E-2
1.761760157E0,3.513999581E-1,9.922734499E-1,1.832594350E-2
1.764171094E0,3.226893246E-1,9.336304665E-1,2.076940238E-2
1.766582032E0,2.927569449E-1,8.725439906E-1,2.321286127E-2
1.768993021E0,2.628245652E-1,8.084031940E-1,2.504545636E-2
1.771403959E0,2.359465212E-1,7.442623973E-1,2.748891525E-2
1.773814896E0,2.047924101E-1,6.764563918E-1,2.809977904E-2
1.776225834E0,1.742491722E-1,6.074286699E-1,3.054323979E-2
1.778636771E0,1.443168074E-1,5.371792316E-1,3.298669681E-2
1.781047709E0,1.125518382E-1,4.669297636E-1,3.481929377E-2
1.783458646E0,8.261945844E-2,3.948477209E-1,3.543015569E-2
1.785869584E0,5.207622424E-2,3.233765364E-1,3.726275265E-2
1.788280521E0,2.031125315E-2,2.506836355E-1,3.909534588E-2
1.790691459E0,-1.023198478E-2,1.786015928E-1,4.153880477E-2
1.793102396E0,-4.138609022E-2,1.046869531E-1,4.276053607E-2
1.795513386E0,-7.254019380E-2,3.260490671E-2,4.459312931E-2
1.797924323E0,-1.055268943E-1,-3.947713599E-2,4.703658819E-2
1.800335261E0,-1.366809905E-1,-1.085048541E-1,4.886918142E-2
1.802746198E0,-1.690568328E-1,-1.787542999E-1,5.009091273E-2
1.805157136E0,-2.014326602E-1,-2.490037531E-1,5.131264031E-2
1.807568073E0,-2.350302190E-1,-3.186423481E-1,5.375609919E-2
1.809979011E0,-2.674060464E-1,-3.846157491E-1,5.497783050E-2
1.812389948E0,-3.022253513E-1,-4.505891204E-1,5.619955808E-2
1.814800886E0,-3.358229101E-1,-5.128973126E-1,5.864302069E-2
1.817211823E0,-3.688096106E-1,-5.752055645E-1,5.986474827E-2
1.819622813E0,-4.030180275E-1,-6.338485479E-1,6.291907281E-2
1.822033698E0,-4.408916533E-1,-6.937133074E-1,6.475166976E-2
1.824444688E0,-4.757109582E-1,-7.499128580E-1,6.536252797E-2
1.826855625E0,-5.123628378E-1,-8.024472594E-1,6.658425927E-2
1.829266563E0,-5.471821427E-1,-8.525381684E-1,7.024945319E-2
1.831677500E0,-5.844448805E-1,-9.014073610E-1,7.208204269E-2
1.834088438E0,-6.223185062E-1,-9.429461360E-1,7.269290835E-2
1.836499375E0,-6.614138484E-1,-9.844849706E-1,7.574722916E-2
1.838910313E0,-6.980656981E-1,-1.021747708E0,7.880155742E-2
1.841321250E0,-7.383828163E-1,-1.055956125E0,7.941242307E-2
1.843732240E0,-7.768672705E-1,-1.085277677E0,8.185587823E-2
1.846143177E0,-8.165735006E-1,-1.109712243E0,8.429934084E-2
1.848554115E0,-8.556688428E-1,-1.131703377E0,8.674279600E-2
1.850965052E0,-8.959859014E-1,-1.146975040E0,8.674279600E-2
1.853375990E0,-9.369138479E-1,-1.157970548E0,9.040798992E-2
1.855786927E0,-9.790635109E-1,-1.165300965E0,9.224057943E-2
1.858197865E0,-1.018158913E0,-1.167133570E0,9.468404204E-2
1.860608802E0,-1.058475971E0,-1.164079189E0,9.529490769E-2
1.863019740E0,-1.100014806E0,-1.154305339E0,9.834922850E-2
1.865430677E0,-1.142775297E0,-1.140866280E0,1.014035568E-1
1.867841615E0,-1.183703184E0,-1.121318698E0,1.026252806E-1
1.870252552E0,-1.223409414E0,-1.097494960E0,1.050687432E-1
1.872663542E0,-1.264948249E0,-1.068173409E0,1.050687432E-1
1.875074479E0,-1.304043531E0,-1.034575820E0,1.062904745E-1
1.877485417E0,-1.345582366E0,-9.960913658E-1,1.075121984E-1
1.879896354E0,-1.385899425E0,-9.521090984E-1,1.093447953E-1
1.882307292E0,-1.424994826E0,-9.038507938E-1,1.111773923E-1
1.884718229E0,-1.464701056E0,-8.519272804E-1,1.117882580E-1
1.887129167E0,-1.501963735E0,-7.945060134E-1,1.136208475E-1
1.889540104E0,-1.540448308E0,-7.352521420E-1,1.142317131E-1
1.891951042E0,-1.577710986E0,-6.711113453E-1,1.148425788E-1
1.894361979E0,-1.615584612E0,-6.045270562E-1,1.148425788E-1
1.896772969E0,-1.652236462E0,-5.342776179E-1,1.148425788E-1
1.899183907E0,-1.688888431E0,-4.615846872E-1,1.154534444E-1
1.901594844E0,-1.723707676E0,-3.870591819E-1,1.148425788E-1
1.904005782E0,-1.758527040E0,-3.107011020E-1,1.154534444E-1
1.906416719E0,-1.792735457E0,-2.306778133E-1,1.136208475E-1
1.908827657E0,-1.826332927E0,-1.494327933E-1,1.130099818E-1
1.911238594E0,-1.859930515E0,-6.940951198E-2,1.123991162E-1
1.913649532E0,-1.891084671E0,1.550069358E-2,1.105665267E-1
1.916060469E0,-1.924071312E0,1.004109010E-1,1.087339297E-1
1.918471407E0,-1.954614520E0,1.840993762E-1,1.075121984E-1
1.920882396E0,-1.985768676E0,2.683987021E-1,1.056796089E-1
1.923293334E0,-2.015090227E0,3.526980579E-1,1.026252806E-1
1.925704271E0,-2.044411659E0,4.369973838E-1,1.001818255E-1
1.928115209E0,-2.073733091E0,5.212967396E-1,9.773836285E-2
1.930526146E0,-2.101833105E0,6.049851775E-1,9.407317638E-2
1.932937084E0,-2.129932880E0,6.862302423E-1,8.979712427E-2
1.935348021E0,-2.156810760E0,7.674752474E-1,8.674279600E-2
1.937758959E0,-2.185521364E0,8.450550437E-1,8.307760954E-2
1.940169896E0,-2.209345102E0,9.238566160E-1,7.757982612E-2
1.942580834E0,-2.233779669E0,9.983821511E-1,7.452550530E-2
1.944991771E0,-2.260046959E0,1.071685910E0,6.963858753E-2
1.947402709E0,-2.284481525E0,1.140102744E0,6.475166976E-2
1.949813698E0,-2.308305264E0,1.207297921E0,5.986474827E-2
1.952224636E0,-2.330296516E0,1.270827770E0,5.436696485E-2
1.954635573E0,-2.352287531E0,1.331914306E0,4.948004708E-2
1.957046511E0,-2.375500441E0,1.386892080E0,4.337139800E-2
1.959457448E0,-2.395658970E0,1.438815594E0,3.604102135E-2
1.961868386E0,-2.415206671E0,1.486463070E0,2.993237413E-2
1.964279323E0,-2.434143543E0,1.527391076E0,2.443459071E-2
1.966690261E0,-2.454912901E0,1.563432097E0,1.771507785E-2
1.969101198E0,-2.472017050E0,1.597029567E0,1.160643063E-2
1.971512136E0,-2.488510370E0,1.623296738E0,6.108647678E-3
1.973923125E0,-2.503171206E0,1.644066215E0,6.108647794E-4
1.976334063E0,-2.520275354E0,1.658116102E0,-6.719512399E-3
1.978745000E0,-2.534325361E0,1.668500781E0,-1.282816008E-2
1.981155938E0,-2.547153473E0,1.670944214E0,-1.771507785E-2
1.983566875E0,-2.559370756E0,1.666668177E0,-2.443459071E-2
1.985977813E0,-2.570977211E0,1.657505274E0,-2.993237413E-2
1.988388750E0,-2.580140114E0,1.642233610E0,-3.665188700E-2
1.990799688E0,-2.588692188E0,1.620242476E0,-4.214967042E-2
1.993210625E0,-2.597855091E0,1.590920925E0,-4.703658819E-2
1.995621563E0,-2.606407404E0,1.556712508E0,-5.131264031E-2
1.998032552E0,-2.610072374E0,1.518838882E0,-5.497783050E-2
2.000443490E0,-2.615570307E0,1.475467563E0,-6.047561392E-2
2.002854427E0,-2.621068001E0,1.422933102E0,-6.475166976E-2
2.005265365E0,-2.623511553E0,1.369177103E0,-6.841685623E-2
2.007676302E0,-2.624733210E0,1.309312344E0,-7.147117704E-2
2.010087240E0,-2.625344038E0,1.245782375E0,-7.696896046E-2
2.012498177E0,-2.627176762E0,1.176754594E0,-7.941242307E-2
2.014909115E0,-2.625954866E0,1.107116103E0,-8.246674389E-2
2.017320052E0,-2.624733210E0,1.030147076E0,-8.429934084E-2
2.019730990E0,-2.620457172E0,9.525672793E-1,-8.735366166E-2
2.022141979E0,-2.617402792E0,8.719331026E-1,-8.857539296E-2
2.024552917E0,-2.612515926E0,7.894663811E-1,-8.918625861E-2
2.026963854E0,-2.606407404E0,7.051670551E-1,-9.040798992E-2
2.029374792E0,-2.600909472E0,6.202568412E-1,-9.101885557E-2
2.031785729E0,-2.592968225E0,5.335140228E-1,-9.101885557E-2
2.034196667E0,-2.586248875E0,4.455494881E-1,-8.979712427E-2
2.036607604E0,-2.577085733E0,3.588066995E-1,-8.918625861E-2
2.039018542E0,-2.567312002E0,2.732856274E-1,-8.857539296E-2
2.041429479E0,-2.557538033E0,1.865428388E-1,-8.918625861E-2
2.043840417E0,-2.546542645E0,1.010217592E-1,-8.674279600E-2
2.046251354E0,-2.536157846E0,1.611155830E-2,-8.368847519E-2
2.048662292E0,-2.522107840E0,-6.513345987E-2,-8.246674389E-2
2.051073282E0,-2.508668900E0,-1.457676142E-1,-8.063415438E-2
2.053484219E0,-2.495840788E0,-2.239582986E-1,-7.880155742E-2
2.055895157E0,-2.480569124E0,-2.997055352E-1,-7.513637096E-2
2.058306094E0,-2.465297461E0,-3.730092943E-1,-7.269290835E-2
2.060717032E0,-2.451247692E0,-4.426479042E-1,-6.841685623E-2
2.063127969E0,-2.435365200E0,-5.086212754E-1,-6.536252797E-2
2.065538907E0,-2.417649984E0,-5.715403557E-1,-6.169734150E-2
2.067949844E0,-2.399324179E0,-6.283507943E-1,-5.925388262E-2
2.070360782E0,-2.380387306E0,-6.827177405E-1,-5.619955808E-2
2.072771719E0,-2.362672329E0,-7.321978211E-1,-5.192350596E-2
2.075182709E0,-2.342513800E0,-7.749583125E-1,-4.886918142E-2
2.077593646E0,-2.322966099E0,-8.152754307E-1,-4.459312931E-2
2.080004584E0,-2.304029226E0,-8.488729596E-1,-3.970621154E-2
2.082415521E0,-2.280816317E0,-8.763619065E-1,-3.787361458E-2
2.084826459E0,-2.260657787E0,-8.989638686E-1,-3.420842811E-2
2.087237396E0,-2.238055944E0,-9.142354727E-1,-2.993237413E-2
2.089648334E0,-2.217286348E0,-9.246202111E-1,-2.748891525E-2
2.092059271E0,-2.195295334E0,-9.282854199E-1,-2.382372692E-2
2.094470209E0,-2.172693253E0,-9.264528155E-1,-2.199113183E-2
2.096881146E0,-2.149480343E0,-9.179006815E-1,-1.954767294E-2
2.099292136E0,-2.126267672E0,-9.020181894E-1,-1.710421406E-2
2.101703073E0,-2.102443933E0,-8.794162273E-1,-1.527161989E-2
2.104114011E0,-2.078009367E0,-8.500946760E-1,-1.404988952E-2
2.106524948E0,-2.054185629E0,-8.164971471E-1,-1.160643063E-2
2.108935886E0,-2.030972719E0,-7.767909169E-1,-9.773836471E-3
2.111346823E0,-2.008981466E0,-7.328086495E-1,-7.941242307E-3
2.113757761E0,-1.983936071E0,-6.821069121E-1,-6.719512399E-3
2.116168698E0,-1.960112333E0,-6.240747571E-1,-6.108647678E-3
2.118579636E0,-1.936899543E0,-5.623773932E-1,-7.330377586E-3
2.120990573E0,-1.913075805E0,-4.976257086E-1,-6.108647678E-3
2.123401511E0,-1.891084671E0,-4.267654121E-1,-7.330377586E-3
2.125812500E0,-1.867260933E0,-3.528507650E-1,-8.552107029E-3
2.128223438E0,-1.844658971E0,-2.758817971E-1,-1.038470119E-2
2.130634375E0,-1.822667837E0,-1.958585232E-1,-1.099556591E-2
2.133045313E0,-1.801287532E0,-1.140026376E-1,-1.160643063E-2
2.135456250E0,-1.779296398E0,-2.909243479E-2,-1.404988952E-2
2.137867188E0,-1.757916093E0,5.642863363E-2,-1.710421406E-2
2.140278125E0,-1.739590168E0,1.431714296E-1,-1.832594350E-2
2.142689063E0,-1.718209863E0,2.299142331E-1,-2.015853859E-2
2.145100000E0,-1.698051333E0,3.191004992E-1,-2.382372692E-2
2.147510990E0,-1.679725409E0,4.070650041E-1,-2.687804960E-2
2.149921927E0,-1.662010312E0,4.925860763E-1,-2.871064469E-2
2.152332865E0,-1.643684387E0,5.781071782E-1,-3.420842811E-2
2.154743802E0,-1.627801895E0,6.624065042E-1,-3.787361458E-2
2.157154740E0,-1.609475970E0,7.467058301E-1,-4.092793912E-2
2.159565677E0,-1.594204307E0,8.248965144E-1,-4.398226365E-2
2.161976615E0,-1.579543591E0,9.030871987E-1,-4.764745384E-2
2.164387552E0,-1.564271927E0,9.782235622E-1,-5.131264031E-2
2.166798490E0,-1.550222039E0,1.049694777E0,-5.558869615E-2
2.169209427E0,-1.534950495E0,1.118111610E0,-6.047561392E-2
2.171620365E0,-1.522122264E0,1.182252407E0,-6.352993846E-2
2.174031302E0,-1.510515928E0,1.240895391E0,-6.780599058E-2
2.176442292E0,-1.498298645E0,1.297705889E0,-7.269290835E-2
2.178853229E0,-1.487913847E0,1.350240231E0,-7.696896046E-2
2.181264167E0,-1.476918340E0,1.396055102E0,-8.063415438E-2
2.183675104E0,-1.467144489E0,1.437593937E0,-8.491020650E-2
2.186086042E0,-1.457370639E0,1.473634958E0,-8.857539296E-2
2.188496979E0,-1.449429393E0,1.504788995E0,-9.162971377E-2
2.190907917E0,-1.440877318E0,1.529223561E0,-9.529490769E-2
2.193318854E0,-1.433546901E0,1.548771262E0,-1.001818255E-1
2.195729792E0,-1.426827431E0,1.562821150E0,-1.038470119E-1
2.198140729E0,-1.420718789E0,1.568318963E0,-1.075121984E-1
2.200551719E0,-1.416442752E0,1.570762396E0,-1.117882580E-1
2.202962657E0,-1.411555767E0,1.566486359E0,-1.142317131E-1
2.205373594E0,-1.407279730E0,1.555490851E0,-1.166751757E-1
2.207784532E0,-1.403003693E0,1.538386583E0,-1.197294965E-1
2.210195469E0,-1.399949312E0,1.515784621E0,-1.221729591E-1
2.212606407E0,-1.397505879E0,1.487073898E0,-1.252272725E-1
2.215017344E0,-1.396284223E0,1.452254653E0,-1.270598769E-1
2.217428282E0,-1.395673275E0,1.413159251E0,-1.295033395E-1
2.219839219E0,-1.396284223E0,1.367344499E0,-1.307250559E-1
2.222250157E0,-1.396284223E0,1.315420985E0,-1.331685185E-1
2.224661146E0,-1.397505879E0,1.261664867E0,-1.337793916E-1
2.227072084E0,-1.399338484E0,1.203632712E0,-1.362228394E-1
2.229483021E0,-1.401171088E0,1.140713573E0,-1.362228394E-1
2.231893959E0,-1.404836297E0,1.071685910E0,-1.362228394E-1
2.234304896E0,-1.409112334E0,1.000214696E0,-1.380554438E-1
2.236715834E0,-1.411555767E0,9.275218248E-1,-1.374445707E-1
2.239126771E0,-1.417053580E0,8.523854613E-1,-1.380554438E-1
2.241537709E0,-1.421940446E0,7.754164934E-1,-1.374445707E-1
2.243948646E0,-1.428049088E0,6.966149211E-1,-1.374445707E-1
2.246359584E0,-1.433546901E0,6.159807444E-1,-1.362228394E-1
2.248770573E0,-1.441488147E0,5.353466272E-1,-1.362228394E-1
2.251181511E0,-1.447596788E0,4.534907341E-1,-1.337793916E-1
2.253592448E0,-1.455538034E0,3.734674454E-1,-1.331685185E-1
2.256003386E0,-1.462868452E0,2.928332984E-1,-1.325576603E-1
2.258414323E0,-1.470809698E0,2.134208828E-1,-1.313359290E-1
2.260825261E0,-1.478139997E0,1.340084672E-1,-1.313359290E-1
2.263236198E0,-1.486692190E0,5.765036494E-2,-1.282816082E-1
2.265647136E0,-1.496466041E0,-1.809686981E-2,-1.258381456E-1
2.268058073E0,-1.505018115E0,-9.140064567E-2,-1.246164143E-1
2.270469063E0,-1.514791965E0,-1.628718227E-1,-1.221729591E-1
2.272880000E0,-1.524565816E0,-2.325104028E-1,-1.197294965E-1
2.275290938E0,-1.533728719E0,-2.978729308E-1,-1.185077652E-1
2.277701875E0,-1.542280793E0,-3.620137274E-1,-1.154534444E-1
2.280112813E0,-1.552054644E0,-4.224893451E-1,-1.142317131E-1
2.282523750E0,-1.561217666E0,-4.811323583E-1,-1.117882580E-1
2.284934688E0,-1.571602345E0,-5.342776179E-1,-1.093447953E-1
2.287345625E0,-1.582597971E0,-5.862011313E-1,-1.075121984E-1
2.289756563E0,-1.590539217E0,-6.326268315E-1,-1.038470119E-1
2.292167500E0,-1.601534724E0,-6.766090989E-1,-1.007926911E-1
2.294578438E0,-1.610697746E0,-7.169261575E-1,-9.834922850E-2
2.296989427E0,-1.619249821E0,-7.517454624E-1,-9.529490769E-2
2.299400365E0,-1.630856276E0,-7.835104465E-1,-9.346231073E-2
2.301811302E0,-1.639408350E0,-8.103885055E-1,-8.979712427E-2
2.304222240E0,-1.647960424E0,-8.323796391E-1,-8.796452731E-2
2.306633177E0,-1.657123446E0,-8.513164520E-1,-8.429934084E-2
2.309044115E0,-1.667508125E0,-8.653663397E-1,-8.307760954E-2
2.311455052E0,-1.675449371E0,-8.739184141E-1,-7.941242307E-2
2.313865990E0,-1.684612393E0,-8.800270557E-1,-7.757982612E-2
2.316276927E0,-1.694386125E0,-8.794162273E-1,-7.574722916E-2
2.318687865E0,-1.702327371E0,-8.733075857E-1,-7.330377400E-2
2.321098854E0,-1.708436131E0,-8.659771681E-1,-7.147117704E-2
2.323509792E0,-1.717599034E0,-8.513164520E-1,-6.780599058E-2
2.325920729E0,-1.725540280E0,-8.329904675E-1,-6.719512492E-2
2.328331667E0,-1.731648922E0,-8.109993339E-1,-6.536252797E-2
2.330742604E0,-1.738368392E0,-7.822887301E-1,-6.352993846E-2
2.333153542E0,-1.742644548E0,-7.505237460E-1,-6.291907281E-2
2.335564479E0,-1.749364018E0,-7.157044411E-1,-6.169734150E-2
2.337975417E0,-1.753029227E0,-6.766090989E-1,-5.925388262E-2
2.340386354E0,-1.757916093E0,-6.344594359E-1,-5.925388262E-2
2.342797292E0,-1.762192130E0,-5.880337358E-1,-5.742128938E-2
2.345208282E0,-1.765246511E0,-5.403862596E-1,-5.681042373E-2
2.347619219E0,-1.767689943E0,-4.896844923E-1,-5.681042373E-2
2.350030157E0,-1.769522548E0,-4.347066581E-1,-5.864302069E-2
2.352441094E0,-1.771355152E0,-3.791179657E-1,-5.925388262E-2
2.354852032E0,-1.770744324E0,-3.210858107E-1,-5.986474827E-2
2.357262969E0,-1.771965981E0,-2.593884468E-1,-5.803215504E-2
2.359673907E0,-1.771355152E0,-1.995237023E-1,-5.986474827E-2
2.362084844E0,-1.769522548E0,-1.378263682E-1,-5.986474827E-2
2.364495782E0,-1.768300772E0,-7.735075057E-2,-6.047561392E-2
2.366906771E0,-1.765857339E0,-1.382081583E-2,-6.169734150E-2
2.369317709E0,-1.764024734E0,4.787652567E-2,-6.352993846E-2
2.371728646E0,-1.760359526E0,1.120173261E-1,-6.475166976E-2
2.374139584E0,-1.754861832E0,1.755472720E-1,-6.780599058E-2
2.376550521E0,-1.751196623E0,2.366337478E-1,-6.963858753E-2
2.378961459E0,-1.743866205E0,2.983310819E-1,-7.147117704E-2
2.381372396E0,-1.738979340E0,3.581958413E-1,-7.452550530E-2
2.383783334E0,-1.731038094E0,4.174497128E-1,-7.635809481E-2
2.386194271E0,-1.723096848E0,4.767036140E-1,-7.941242307E-2
2.388605209E0,-1.715766430E0,5.310705900E-1,-8.002328873E-2
2.391016146E0,-1.707214355E0,5.848266482E-1,-8.307760954E-2
2.393427136E0,-1.696829677E0,6.379718781E-1,-8.613193035E-2
2.395838073E0,-1.685834050E0,6.886736751E-1,-8.857539296E-2
2.398249011E0,-1.675449371E0,7.381537557E-1,-9.162971377E-2
2.400659948E0,-1.663842916E0,7.833577394E-1,-9.468404204E-2
2.403070886E0,-1.651014805E0,8.267291188E-1,-9.712749720E-2
2.405481823E0,-1.637575746E0,8.676570654E-1,-1.007926911E-1
2.407892761E0,-1.622915030E0,9.067524076E-1,-1.038470119E-1
2.410303698E0,-1.608865142E0,9.421825409E-1,-1.075121984E-1
2.412714636E0,-1.592371821E0,9.757801294E-1,-1.111773923E-1
2.415125573E0,-1.575878382E0,1.004490733E0,-1.142317131E-1
2.417536563E0,-1.558163285E0,1.031368852E0,-1.160643101E-1
2.419947500E0,-1.541669965E0,1.054581642E0,-1.191186309E-1
2.422358438E0,-1.522122264E0,1.074129343E0,-1.215620935E-1
2.424769375E0,-1.503185511E0,1.089401007E0,-1.246164143E-1
2.427180313E0,-1.482416153E0,1.102839947E0,-1.288924664E-1
2.429591250E0,-1.460425019E0,1.113224745E0,-1.313359290E-1
2.432002188E0,-1.438433886E0,1.117500782E0,-1.343902498E-1
2.434413125E0,-1.415220976E0,1.119944215E0,-1.362228394E-1
2.436824063E0,-1.390786409E0,1.117500782E0,-1.392771751E-1
2.439235000E0,-1.366351843E0,1.112002969E0,-1.404989064E-1
2.441645990E0,-1.340695500E0,1.102839947E0,-1.423314959E-1
2.444056927E0,-1.313817382E0,1.088790059E0,-1.453858167E-1
2.446467865E0,-1.286939383E0,1.072907686E0,-1.459966749E-1
2.448878802E0,-1.259450436E0,1.050916553E0,-1.478292793E-1
2.451289740E0,-1.230129004E0,1.027092814E0,-1.490510106E-1
2.453700677E0,-1.200196624E0,9.996038675E-1,-1.508836001E-1
2.456111615E0,-1.170264244E0,9.690605998E-1,-1.514944583E-1
2.458522552E0,-1.139720917E0,9.336304665E-1,-1.533270627E-1
2.460933490E0,-1.106734276E0,8.957568407E-1,-1.545487940E-1
2.463344427E0,-1.076191068E0,8.554397821E-1,-1.545487940E-1
2.465755417E0,-1.043204308E0,8.139009476E-1,-1.557705253E-1
2.468166354E0,-1.009606719E0,7.674752474E-1,-1.557705253E-1
2.470577292E0,-9.778417945E-1,7.198277712E-1,-1.569922417E-1
2.472988229E0,-9.411898851E-1,6.709585786E-1,-1.563813835E-1
2.475399167E0,-9.088140726E-1,6.184242368E-1,-1.551596522E-1
2.477810104E0,-8.727730513E-1,5.665007234E-1,-1.551596522E-1
2.480221042E0,-8.379537463E-1,5.127446055E-1,-1.545487940E-1
2.482631979E0,-8.037453294E-1,4.577668011E-1,-1.557705253E-1
2.485042917E0,-7.677043080E-1,3.991237879E-1,-1.539379209E-1
2.487453907E0,-7.316632867E-1,3.410916328E-1,-1.527161896E-1
2.489864844E0,-6.944005489E-1,2.830594778E-1,-1.527161896E-1
2.492275782E0,-6.589703560E-1,2.256381810E-1,-1.521053314E-1
2.494686719E0,-6.210967898E-1,1.663842946E-1,-1.508836001E-1
2.497097657E0,-5.856665969E-1,1.077412739E-1,-1.508836001E-1
2.499508594E0,-5.471821427E-1,4.909825698E-2,-1.496618688E-1
2.501919532E0,-5.105302334E-1,-1.015562657E-2,-1.478292793E-1
2.504330469E0,-4.732674956E-1,-6.879864633E-2,-1.472184062E-1
2.506741407E0,-4.353938699E-1,-1.262199283E-1,-1.447749585E-1
2.509152344E0,-3.956876695E-1,-1.811977625E-1,-1.441640854E-1
2.511563334E0,-3.584249020E-1,-2.373973280E-1,-1.417206228E-1
2.513974271E0,-3.187187016E-1,-2.942077518E-1,-1.417206228E-1
2.516385209E0,-2.808450758E-1,-3.485747278E-1,-1.398880333E-1
2.518796146E0,-2.417497337E-1,-4.004982114E-1,-1.386663020E-1
2.521207084E0,-2.032652497E-1,-4.518108666E-1,-1.380554438E-1
2.523618021E0,-1.611155868E-1,-5.025126338E-1,-1.380554438E-1
2.526028959E0,-1.214093715E-1,-5.519927144E-1,-1.362228394E-1
2.528439896E0,-8.109229803E-2,-5.984184146E-1,-1.343902498E-1
2.530850834E0,-4.077522457E-2,-6.424006820E-1,-1.331685185E-1
2.533261771E0,1.374445739E-3,-6.869937778E-1,-1.331685185E-1
2.535672761E0,4.169152305E-2,-7.279217243E-1,-1.325576603E-1
2.538083698E0,8.445205539E-2,-7.657953501E-1,-1.325576603E-1
2.540494636E0,1.259908676E-1,-8.030580878E-1,-1.313359290E-1
2.542905573E0,1.693622619E-1,-8.372665644E-1,-1.313359290E-1
2.545316511E0,2.127336562E-1,-8.690314889E-1,-1.313359290E-1
2.547727448E0,2.561050653E-1,-8.971312642E-1,-1.319467872E-1
2.550138386E0,2.982547283E-1,-9.233984947E-1,-1.319467872E-1
2.552549323E0,3.446804583E-1,-9.472221732E-1,-1.313359290E-1
2.554960261E0,3.898844421E-1,-9.673807621E-1,-1.325576603E-1
2.557371198E0,4.338667095E-1,-9.838740826E-1,-1.325576603E-1
2.559782188E0,4.784598351E-1,-9.997565746E-1,-1.325576603E-1
2.562193125E0,5.248855352E-1,-1.008308649E0,-1.331685185E-1
2.564604063E0,5.700895786E-1,-1.016249895E0,-1.343902498E-1
2.567015000E0,6.159043908E-1,-1.020525932E0,-1.350011230E-1
2.569425938E0,6.623301506E-1,-1.020525932E0,-1.362228394E-1
2.571836875E0,7.093667388E-1,-1.017471671E0,-1.386663020E-1
2.574247813E0,7.539598346E-1,-1.011363029E0,-1.392771751E-1
2.576658750E0,7.997747064E-1,-9.997565746E-1,-1.404989064E-1
2.579069688E0,8.462004066E-1,-9.869284034E-1,-1.417206228E-1
2.581480625E0,8.920152783E-1,-9.698241949E-1,-1.441640854E-1
2.583891615E0,9.372192621E-1,-9.490547776E-1,-1.478292793E-1
2.586302552E0,9.836450219E-1,-9.264528155E-1,-1.496618688E-1
2.588713490E0,1.027627230E0,-8.995747566E-1,-1.508836001E-1
2.591124427E0,1.074053049E0,-8.684206605E-1,-1.533270627E-1
2.593535365E0,1.118035316E0,-8.360447884E-1,-1.563813835E-1
2.595946302E0,1.162017584E0,-8.012255430E-1,-1.588248461E-1
2.598357240E0,1.203556299E0,-7.639627457E-1,-1.612683088E-1
2.600768177E0,1.248760343E0,-7.230347991E-1,-1.643226296E-1
2.603179115E0,1.289077401E0,-6.814960241E-1,-1.673769504E-1
2.605590052E0,1.332448840E0,-6.356811523E-1,-1.698204130E-1
2.608001042E0,1.375209332E0,-5.892554522E-1,-1.722638607E-1
2.610411979E0,1.415526390E0,-5.403862596E-1,-1.747073233E-1
2.612822917E0,1.455232620E0,-4.921279252E-1,-1.759290546E-1
2.615233854E0,1.494328022E0,-4.414261580E-1,-1.795942485E-1
2.617644792E0,1.534645081E0,-3.895026445E-1,-1.820377111E-1
2.620055729E0,1.571296930E0,-3.357465565E-1,-1.844811589E-1
2.622466667E0,1.611003160E0,-2.813795805E-1,-1.857028902E-1
2.624877604E0,1.648876786E0,-2.264017612E-1,-1.881463528E-1
2.627288542E0,1.684306860E0,-1.714239269E-1,-1.893680841E-1
2.629699532E0,1.720347881E0,-1.170569658E-1,-1.912006736E-1
2.632110469E0,1.757610679E0,-6.085740402E-2,-1.936441362E-1
2.634521407E0,1.793651700E0,-5.879573524E-3,-1.954767257E-1
2.636932344E0,1.827860117E0,4.848739132E-2,-1.960875988E-1
2.639343282E0,1.860235929E0,1.022434905E-1,-1.979201883E-1
2.641754219E0,1.894444346E0,1.559995860E-1,-1.991419196E-1
2.644165157E0,1.925598502E0,2.079230994E-1,-1.997527778E-1
2.646576094E0,1.958585143E0,2.604574561E-1,-2.009745091E-1
2.648987032E0,1.989739299E0,3.105483949E-1,-2.009745091E-1
2.651397969E0,2.020282507E0,3.575849831E-1,-2.003636509E-1
2.653808959E0,2.050215006E0,4.058432877E-1,-2.009745091E-1
2.656219896E0,2.080758095E0,4.516581595E-1,-2.003636509E-1
2.658630834E0,2.111301422E0,4.931969643E-1,-1.997527778E-1
2.661041771E0,2.138790369E0,5.322923064E-1,-1.997527778E-1
2.663452709E0,2.167500973E0,5.707767606E-1,-1.997527778E-1
2.665863646E0,2.194379091E0,6.068177819E-1,-1.985310465E-1
2.668274584E0,2.220035315E0,6.379718781E-1,-1.960875988E-1
2.670685521E0,2.245080709E0,6.679042578E-1,-1.960875988E-1
2.673096459E0,2.268904448E0,6.941714883E-1,-1.936441362E-1
2.675507396E0,2.293950081E0,7.161626220E-1,-1.930332631E-1
2.677918334E0,2.314719439E0,7.363211513E-1,-1.912006736E-1
2.680329323E0,2.338543177E0,7.515927553E-1,-1.887572110E-1
2.682740261E0,2.359312534E0,7.619774342E-1,-1.857028902E-1
2.685151198E0,2.379471064E0,7.705295682E-1,-1.838703007E-1
2.687562136E0,2.399018764E0,7.748056054E-1,-1.814268380E-1
2.689973073E0,2.417344570E0,7.729730010E-1,-1.777616441E-1
2.692384011E0,2.433227062E0,7.680860758E-1,-1.753181964E-1
2.694794948E0,2.450331450E0,7.601448894E-1,-1.722638607E-1
2.697205886E0,2.466824770E0,7.485384345E-1,-1.685986817E-1
2.699616875E0,2.479042053E0,7.314342260E-1,-1.655443609E-1
2.702027813E0,2.491870165E0,7.100539207E-1,-1.631008983E-1
2.704438750E0,2.504087448E0,6.856193542E-1,-1.594357044E-1
2.706849688E0,2.515083075E0,6.581304669E-1,-1.569922417E-1
2.709260625E0,2.524856806E0,6.263654828E-1,-1.539379209E-1
2.711671563E0,2.531576395E0,5.884918571E-1,-1.502727419E-1
2.714082500E0,2.540128469E0,5.518399477E-1,-1.478292793E-1
2.716493438E0,2.547458887E0,5.084685683E-1,-1.447749585E-1
2.718904375E0,2.552345753E0,4.644863009E-1,-1.404989064E-1
2.721315365E0,2.555400133E0,4.162279963E-1,-1.392771751E-1
2.723726302E0,2.559676170E0,3.673588037E-1,-1.362228394E-1
2.726137240E0,2.561508656E0,3.136027157E-1,-1.325576603E-1
2.728548177E0,2.560286999E0,2.592357397E-1,-1.313359290E-1
2.730959115E0,2.561508656E0,2.036470473E-1,-1.295033395E-1
2.733370052E0,2.559065342E0,1.425605714E-1,-1.264490038E-1
2.735780990E0,2.559065342E0,8.330668509E-2,-1.233946830E-1
2.738191927E0,2.553567410E0,2.283107117E-2,-1.221729591E-1
2.740602865E0,2.549291372E0,-3.947713599E-2,-1.203403622E-1
2.743013802E0,2.545015335E0,-1.011744812E-1,-1.203403622E-1
2.745424792E0,2.538295984E0,-1.653152853E-1,-1.185077652E-1
2.747835729E0,2.529132843E0,-2.276234925E-1,-1.185077652E-1
2.750246667E0,2.523024321E0,-2.893208265E-1,-1.172860414E-1
2.752657604E0,2.512639523E0,-3.528507650E-1,-1.172860414E-1
2.755068542E0,2.503476620E0,-4.139372408E-1,-1.178968996E-1
2.757479479E0,2.492480993E0,-4.762454629E-1,-1.178968996E-1
2.759890417E0,2.480874538E0,-5.361102223E-1,-1.166751757E-1
2.762301354E0,2.468046427E0,-5.929206014E-1,-1.185077652E-1
2.764712292E0,2.455218315E0,-6.497310400E-1,-1.185077652E-1
2.767123229E0,2.440557480E0,-7.053197622E-1,-1.197294965E-1
2.769534219E0,2.427118540E0,-7.578541040E-1,-1.215620935E-1
2.771945157E0,2.410625219E0,-8.085559011E-1,-1.227838174E-1
2.774356094E0,2.394742727E0,-8.562033176E-1,-1.233946830E-1
2.776767032E0,2.378249407E0,-9.007964730E-1,-1.258381456E-1
2.779177969E0,2.359923363E0,-9.435570240E-1,-1.288924664E-1
2.781588907E0,2.342208385E0,-9.814306498E-1,-1.307250559E-1
2.783999844E0,2.322660685E0,-1.019304276E0,-1.337793916E-1
2.786410782E0,2.303723812E0,-1.052290916E0,-1.362228394E-1
2.788821771E0,2.283565283E0,-1.077947259E0,-1.392771751E-1
2.791232657E0,2.262185097E0,-1.103603601E0,-1.411097646E-1
2.793643646E0,2.242026567E0,-1.124372959E0,-1.435532272E-1
2.796054584E0,2.219424486E0,-1.139033794E0,-1.478292793E-1
2.798465521E0,2.196211576E0,-1.153083682E0,-1.496618688E-1
2.800876459E0,2.176053047E0,-1.159192324E0,-1.533270627E-1
2.803287396E0,2.153450966E0,-1.161635756E0,-1.582139730E-1
2.805698334E0,2.130849123E0,-1.160413980E0,-1.612683088E-1
2.808109271E0,2.105803728E0,-1.156137943E0,-1.655443609E-1
2.810520209E0,2.082590818E0,-1.145753264E0,-1.685986817E-1
2.812931146E0,2.058767080E0,-1.130481601E0,-1.722638607E-1
2.815342136E0,2.035554171E0,-1.110323071E0,-1.747073233E-1
2.817753073E0,2.012952089E0,-1.085888505E0,-1.771507859E-1
2.820164011E0,1.987906694E0,-1.057788730E0,-1.814268380E-1
2.822574948E0,1.961639524E0,-1.026023746E0,-1.857028902E-1
2.824985886E0,1.939037561E0,-9.881501198E-1,-1.905898154E-1
2.827396823E0,1.915824652E0,-9.478330612E-1,-1.912006736E-1
2.829807761E0,1.891390085E0,-9.038507938E-1,-1.948658675E-1
2.832218698E0,1.868177176E0,-8.562033176E-1,-1.985310465E-1
2.834629636E0,1.843742609E0,-8.055015802E-1,-2.015853822E-1
2.837040625E0,1.821751475E0,-7.523563504E-1,-2.046397030E-1
2.839451563E0,1.797927737E0,-6.967676282E-1,-2.076940238E-1
2.841862500E0,1.777769208E0,-6.369028687E-1,-2.113592178E-1
2.844273438E0,1.755167246E0,-5.770381689E-1,-2.138026655E-1
2.846684375E0,1.731954336E0,-5.147299170E-1,-2.162461281E-1
2.849095313E0,1.710574150E0,-4.518108666E-1,-2.193004489E-1
2.851506250E0,1.690415502E0,-3.852266073E-1,-2.217439115E-1
2.853917188E0,1.671478748E0,-3.192532063E-1,-2.235765159E-1
2.856328125E0,1.651931047E0,-2.520580888E-1,-2.247982323E-1
2.858739063E0,1.631772518E0,-1.854738146E-1,-2.247982323E-1
2.861150052E0,1.616500974E0,-1.176678315E-1,-2.278525680E-1
2.863560990E0,1.597564101E0,-5.108356848E-2,-2.296851575E-1
2.865971927E0,1.579849005E0,1.488982886E-2,-2.315177470E-1
2.868382865E0,1.563966513E0,7.964149863E-2,-2.321286201E-1
2.870793802E0,1.548694968E0,1.431714296E-1,-2.333503515E-1
2.873204740E0,1.531590700E0,2.060905099E-1,-2.345720828E-1
2.875615677E0,1.518151641E0,2.653443813E-1,-2.351829410E-1
2.878026615E0,1.504101753E0,3.239873946E-1,-2.357937992E-1
2.880437552E0,1.491884470E0,3.771326542E-1,-2.357937992E-1
2.882848542E0,1.479667187E0,4.308887422E-1,-2.351829410E-1
2.885259479E0,1.468671679E0,4.809796512E-1,-2.357937992E-1
2.887670417E0,1.458897829E0,5.274053812E-1,-2.364046723E-1
2.890081354E0,1.447902203E0,5.707767606E-1,-2.351829410E-1
2.892492292E0,1.438739300E0,6.110938787E-1,-2.339612097E-1
2.894903229E0,1.431408882E0,6.471349001E-1,-2.345720828E-1
2.897314167E0,1.424078465E0,6.807324290E-1,-2.327394783E-1
2.899725104E0,1.418580770E0,7.094430923E-1,-2.315177470E-1
2.902136042E0,1.410639524E0,7.326559424E-1,-2.309068888E-1
2.904546979E0,1.406363487E0,7.522036433E-1,-2.302960157E-1
2.906957969E0,1.402087331E0,7.668643594E-1,-2.290742993E-1
2.909368907E0,1.399033070E0,7.778599262E-1,-2.266308367E-1
2.911779844E0,1.398422241E0,7.851903439E-1,-2.247982323E-1
2.914190782E0,1.395367861E0,7.864120603E-1,-2.241873741E-1
2.916601719E0,1.392924428E0,7.827468514E-1,-2.223547846E-1
2.919012657E0,1.394146085E0,7.748056054E-1,-2.199113220E-1
2.921423594E0,1.394757032E0,7.619774342E-1,-2.174678594E-1
2.923834532E0,1.397811294E0,7.467058301E-1,-2.162461281E-1
2.926245521E0,1.398422241E0,7.253255844E-1,-2.138026655E-1
2.928656459E0,1.403309107E0,7.002801299E-1,-2.119700760E-1
2.931067396E0,1.406363487E0,6.703477502E-1,-2.107483447E-1
2.933478334E0,1.410639524E0,6.367501616E-1,-2.083048970E-1
2.935889271E0,1.416748166E0,6.007091403E-1,-2.052505612E-1
2.938300209E0,1.422856808E0,5.597811937E-1,-2.034179717E-1
2.940711146E0,1.429576278E0,5.157989264E-1,-2.028071135E-1
2.943122084E0,1.436906695E0,4.693732262E-1,-2.003636509E-1
2.945533021E0,1.446680546E0,4.205040336E-1,-1.985310465E-1
2.947943959E0,1.455232620E0,3.679696620E-1,-1.973093301E-1
2.950354896E0,1.465617299E0,3.148244321E-1,-1.942549944E-1
2.952765886E0,1.474780321E0,2.567922771E-1,-1.912006736E-1
2.955176823E0,1.486997604E0,1.999818534E-1,-1.905898154E-1
2.957587761E0,1.497993112E0,1.407279670E-1,-1.887572110E-1
2.959998698E0,1.508377910E0,8.086322248E-2,-1.869246215E-1
2.962409636E0,1.521206021E0,2.160934173E-2,-1.863137633E-1
2.964820573E0,1.534645081E0,-3.764454275E-2,-1.850920320E-1
2.967231511E0,1.546862364E0,-9.934188426E-2,-1.820377111E-1
2.969642448E0,1.560301304E0,-1.598175019E-1,-1.820377111E-1
2.972053438E0,1.574962139E0,-2.178496569E-1,-1.820377111E-1
2.974464375E0,1.589622855E0,-2.752709389E-1,-1.802051067E-1
2.976875313E0,1.603672743E0,-3.333030939E-1,-1.802051067E-1
2.979286250E0,1.618944407E0,-3.888917863E-1,-1.802051067E-1
2.981697188E0,1.632994294E0,-4.426479042E-1,-1.789833754E-1
2.984108125E0,1.648265839E0,-4.951822758E-1,-1.789833754E-1
2.986519063E0,1.664148331E0,-5.458840132E-1,-1.802051067E-1
2.988930000E0,1.679419994E0,-5.941423774E-1,-1.802051067E-1
2.991340938E0,1.695302486E0,-6.399571896E-1,-1.802051067E-1
2.993751875E0,1.711184978E0,-6.821069121E-1,-1.814268380E-1
2.996162865E0,1.728289127E0,-7.224239707E-1,-1.814268380E-1
2.998573802E0,1.743560791E0,-7.590758204E-1,-1.826485693E-1
3.000984740E0,1.760665059E0,-7.932842970E-1,-1.838703007E-1
3.003395677E0,1.774714947E0,-8.238275051E-1,-1.863137633E-1
3.005806615E0,1.792429924E0,-8.500946760E-1,-1.887572110E-1
3.008217552E0,1.809534192E0,-8.745293021E-1,-1.905898154E-1
3.010628490E0,1.823584080E0,-8.946878314E-1,-1.918115467E-1
3.013039427E0,1.840688348E0,-9.111811519E-1,-1.936441362E-1
3.015450365E0,1.855959892E0,-9.240093231E-1,-1.966984570E-1
3.017861354E0,1.873064160E0,-9.325614572E-1,-1.991419196E-1
3.020272292E0,1.887724876E0,-9.374483824E-1,-2.015853822E-1
3.022683229E0,1.904218197E0,-9.380592108E-1,-2.046397030E-1
3.025094167E0,1.920711637E0,-9.356157780E-1,-2.076940238E-1
3.027505104E0,1.934761524E0,-9.282854199E-1,-2.095266134E-1
3.029916042E0,1.950033069E0,-9.185115695E-1,-2.119700760E-1
3.032326979E0,1.962861300E0,-9.050725102E-1,-2.162461281E-1
3.034737917E0,1.978743792E0,-8.879683018E-1,-2.186895907E-1
3.037148854E0,1.991571903E0,-8.659771681E-1,-2.223547846E-1
3.039559844E0,2.005621672E0,-8.409317136E-1,-2.241873741E-1
3.041970782E0,2.017839193E0,-8.128319383E-1,-2.284634262E-1
3.044381719E0,2.030667305E0,-7.810669541E-1,-2.315177470E-1
3.046792657E0,2.043495417E0,-7.462477088E-1,-2.351829410E-1
3.049203594E0,2.054491043E0,-7.089849114E-1,-2.364046723E-1
3.051614532E0,2.066097498E0,-6.680569649E-1,-2.412915826E-1
3.054025469E0,2.077092886E0,-6.246855855E-1,-2.443459183E-1
3.056436407E0,2.085644960E0,-5.807033181E-1,-2.467893660E-1
3.058847344E0,2.094197273E0,-5.336667299E-1,-2.492328286E-1
3.061258282E0,2.102749348E0,-4.841867089E-1,-2.516762912E-1
3.063669271E0,2.109468699E0,-4.347066581E-1,-2.541197538E-1
3.066080209E0,2.117409945E0,-3.833940029E-1,-2.571740746E-1
3.068491146E0,2.123518705E0,-3.314704895E-1,-2.602283955E-1
3.070902084E0,2.128405571E0,-2.783252597E-1,-2.620609999E-1
3.073313021E0,2.135125160E0,-2.233474404E-1,-2.626718581E-1
3.075723959E0,2.136346817E0,-1.708130687E-1,-2.638935745E-1
3.078134896E0,2.140622854E0,-1.158352345E-1,-2.663370371E-1
3.080545834E0,2.142455578E0,-6.085740402E-2,-2.675587833E-1
3.082956771E0,2.145509720E0,-6.490438245E-3,-2.675587833E-1
3.085367761E0,2.146120787E0,4.421133921E-2,-2.712239623E-1
3.087778698E0,2.147953272E0,9.674570709E-2,-2.718348205E-1
3.090189636E0,2.146120787E0,1.474474818E-1,-2.712239623E-1
3.092600573E0,2.143677235E0,1.993709952E-1,-2.718348205E-1
3.095011511E0,2.141844749E0,2.482401729E-1,-2.730565667E-1
3.097422448E0,2.138790369E0,2.946659029E-1,-2.718348205E-1
3.099833386E0,2.135735989E0,3.398698866E-1,-2.730565667E-1
3.102244323E0,2.130238295E0,3.838521540E-1,-2.724456787E-1
3.104655261E0,2.124740362E0,4.272235632E-1,-2.724456787E-1
3.107066250E0,2.119242668E0,4.663189054E-1,-2.706131041E-1
3.109477188E0,2.111301422E0,5.041925311E-1,-2.706131041E-1
3.111888125E0,2.103360176E0,5.408443809E-1,-2.687804997E-1
3.114299063E0,2.093586206E0,5.726093650E-1,-2.681696415E-1
3.116710000E0,2.084423304E0,6.043743491E-1,-2.681696415E-1
3.119120938E0,2.072206020E0,6.330850124E-1,-2.657261789E-1
3.121531875E0,2.061821461E0,6.581304669E-1,-2.638935745E-1
3.123942813E0,2.047160625E0,6.801216006E-1,-2.632827163E-1
3.126353750E0,2.034943342E0,7.002801299E-1,-2.620609999E-1
3.128764740E0,2.020282507E0,7.161626220E-1,-2.596175373E-1
3.131175677E0,2.004400015E0,7.296016216E-1,-2.553414702E-1
3.133586615E0,1.986685038E0,7.399863005E-1,-2.541197538E-1
3.135997552E0,1.970191598E0,7.473167181E-1,-2.516762912E-1
3.138408490E0,1.953698277E0,7.540361881E-1,-2.492328286E-1
3.140819427E0,1.934761524E0,7.546470761E-1,-2.474002391E-1
3.143230365E0,1.913992047E0,7.540361881E-1,-2.449567765E-1
3.145641302E0,1.893222690E0,7.485384345E-1,-2.419024557E-1
3.148052240E0,1.871231556E0,7.405971885E-1,-2.400698513E-1
3.150463229E0,1.848018646E0,7.302125096E-1,-2.376264036E-1
3.152874167E0,1.824194908E0,7.179951668E-1,-2.351829410E-1
3.155285104E0,1.798538685E0,7.008909583E-1,-2.333503515E-1
3.157696042E0,1.774103999E0,6.807324290E-1,-2.302960157E-1
3.160106979E0,1.747226000E0,6.587412953E-1,-2.278525680E-1
3.162517917E0,1.720347881E0,6.343067288E-1,-2.260199636E-1
3.164928854E0,1.692859054E0,6.074286699E-1,-2.229656428E-1
3.167339792E0,1.662926674E0,5.787180066E-1,-2.211330533E-1
3.169750729E0,1.634826899E0,5.487856269E-1,-2.174678594E-1
3.172161719E0,1.604283571E0,5.151880980E-1,-2.162461281E-1
3.174572657E0,1.572518706E0,4.809796512E-1,-2.138026655E-1
3.176983594E0,1.540753722E0,4.437169135E-1,-2.113592178E-1
3.179394532E0,1.509599566E0,4.046215713E-1,-2.083048970E-1
3.181805469E0,1.476612926E0,3.661370873E-1,-2.083048970E-1
3.184216407E0,1.441793561E0,3.258199990E-1,-2.058614343E-1
3.186627344E0,1.406974316E0,2.848920524E-1,-2.040288299E-1
3.189038282E0,1.374598503E0,2.427423894E-1,-2.028071135E-1
3.191449271E0,1.338557482E0,1.987601221E-1,-2.003636509E-1
3.193860209E0,1.304349065E0,1.553887278E-1,-1.979201883E-1
3.196271146E0,1.267086267E0,1.120173261E-1,-1.973093301E-1
3.198682084E0,1.231045246E0,6.803506613E-2,-1.966984570E-1
3.201093021E0,1.193171620E0,2.283107117E-2,-1.948658675E-1
3.203503959E0,1.157741427E0,-1.992946304E-2,-1.936441362E-1
3.205914896E0,1.118646145E0,-6.452259421E-2,-1.924224049E-1
3.208325834E0,1.081383348E0,-1.066722646E-1,-1.912006736E-1
3.210736771E0,1.042898893E0,-1.494327933E-1,-1.899789423E-1
3.213147709E0,1.004414439E0,-1.915824711E-1,-1.887572110E-1
3.215558698E0,9.653190970E-1,-2.343430072E-1,-1.887572110E-1
3.217969636E0,9.256128669E-1,-2.728274763E-1,-1.881463528E-1
3.220380573E0,8.859066367E-1,-3.131445646E-1,-1.863137633E-1
3.222791511E0,8.449786901E-1,-3.516290486E-1,-1.857028902E-1
3.225202448E0,8.071050644E-1,-3.876700699E-1,-1.857028902E-1
3.227613386E0,7.643445730E-1,-4.249328077E-1,-1.857028902E-1
3.230024323E0,7.234166265E-1,-4.591412544E-1,-1.844811589E-1
3.232435261E0,6.818777919E-1,-4.933496714E-1,-1.838703007E-1
3.234846198E0,6.397281289E-1,-5.232820511E-1,-1.832594275E-1
3.237257188E0,5.988001823E-1,-5.538252592E-1,-1.820377111E-1
3.239668125E0,5.560396910E-1,-5.819250345E-1,-1.826485693E-1
3.242079063E0,5.126682520E-1,-6.094139814E-1,-1.826485693E-1
3.244490000E0,4.705185890E-1,-6.326268315E-1,-1.814268380E-1
3.246900938E0,4.247037470E-1,-6.552288532E-1,-1.814268380E-1
3.249311875E0,3.813323379E-1,-6.753873825E-1,-1.826485693E-1
3.251722813E0,3.385718167E-1,-6.924915910E-1,-1.808159798E-1
3.254133750E0,2.945895493E-1,-7.095957994E-1,-1.814268380E-1
3.256544688E0,2.493855506E-1,-7.230347991E-1,-1.814268380E-1
3.258955625E0,2.047924101E-1,-7.346412539E-1,-1.802051067E-1
3.261366615E0,1.583666950E-1,-7.438042164E-1,-1.808159798E-1
3.263777552E0,1.137735620E-1,-7.493020296E-1,-1.802051067E-1
3.266188490E0,6.734783947E-2,-7.535780668E-1,-1.802051067E-1
3.268599427E0,2.214384824E-2,-7.554106712E-1,-1.783725172E-1
3.271010365E0,-2.489273995E-2,-7.547997832E-1,-1.789833754E-1
3.273421302E0,-6.826414168E-2,-7.523563504E-1,-1.771507859E-1
3.275832240E0,-1.146898642E-1,-7.462477088E-1,-1.783725172E-1
3.278243229E0,-1.617264450E-1,-7.383064628E-1,-1.783725172E-1
3.280654167E0,-2.075413018E-1,-7.254782915E-1,-1.777616441E-1
3.283065104E0,-2.527453005E-1,-7.114284039E-1,-1.771507859E-1
3.285476042E0,-2.985601723E-1,-6.961567998E-1,-1.771507859E-1
3.287886979E0,-3.455967605E-1,-6.796634197E-1,-1.759290546E-1
3.290297917E0,-3.908007443E-1,-6.582831740E-1,-1.759290546E-1
3.292708854E0,-4.360047281E-1,-6.356811523E-1,-1.765399277E-1
3.295119792E0,-4.805978537E-1,-6.118574142E-1,-1.765399277E-1
3.297530729E0,-5.251910090E-1,-5.843685269E-1,-1.765399277E-1
3.299941719E0,-5.703949928E-1,-5.568795800E-1,-1.747073233E-1
3.302352657E0,-6.149880886E-1,-5.257254839E-1,-1.759290546E-1
3.304763594E0,-6.577486396E-1,-4.939605296E-1,-1.759290546E-1
3.307174532E0,-7.023417950E-1,-4.603629708E-1,-1.747073233E-1
3.309585469E0,-7.451022863E-1,-4.243219495E-1,-1.747073233E-1
3.311996407E0,-7.872520089E-1,-3.876700699E-1,-1.740964651E-1
3.314407344E0,-8.300125003E-1,-3.504073024E-1,-1.747073233E-1
3.316818282E0,-8.709404469E-1,-3.119228184E-1,-1.747073233E-1
3.319229219E0,-9.118683934E-1,-2.722166181E-1,-1.747073233E-1
3.321640209E0,-9.509637356E-1,-2.306778133E-1,-1.740964651E-1
3.324051146E0,-9.925025702E-1,-1.891390085E-1,-1.759290546E-1
3.326462084E0,-1.031597853E0,-1.488219351E-1,-1.759290546E-1
3.328873021E0,-1.069471478E0,-1.066722646E-1,-1.753181964E-1
3.331283959E0,-1.107345104E0,-6.330086291E-2,-1.753181964E-1
3.333694896E0,-1.145829558E0,-2.176205814E-2,-1.771507859E-1
3.336105834E0,-1.182481527E0,2.160934173E-2,-1.777616441E-1
3.338516771E0,-1.219133377E0,6.375901401E-2,-1.783725172E-1
3.340927709E0,-1.255785227E0,1.065195426E-1,-1.783725172E-1
3.343338698E0,-1.292437196E0,1.486692131E-1,-1.802051067E-1
3.345749636E0,-1.326645613E0,1.889862865E-1,-1.808159798E-1
3.348160573E0,-1.360854030E0,2.317468226E-1,-1.802051067E-1
3.350571511E0,-1.393840671E0,2.702313066E-1,-1.814268380E-1
3.352982448E0,-1.428660035E0,3.099375069E-1,-1.832594275E-1
3.355393386E0,-1.462257624E0,3.472002745E-1,-1.850920320E-1
3.357804323E0,-1.494633436E0,3.844630122E-1,-1.863137633E-1
3.360215261E0,-1.525176644E0,4.211149216E-1,-1.869246215E-1
3.362626198E0,-1.557552457E0,4.547124803E-1,-1.887572110E-1
3.365037188E0,-1.589317441E0,4.858665764E-1,-1.899789423E-1
3.367448125E0,-1.616806388E0,5.176315308E-1,-1.918115467E-1
3.369859063E0,-1.648571372E0,5.463421941E-1,-1.930332631E-1
3.372270000E0,-1.678503752E0,5.732202530E-1,-1.948658675E-1
3.374680938E0,-1.705992579E0,5.982657075E-1,-1.966984570E-1
3.377091875E0,-1.732870698E0,6.208676696E-1,-1.979201883E-1
3.379502813E0,-1.760970473E0,6.404153705E-1,-1.991419196E-1
3.381913750E0,-1.787848473E0,6.575195789E-1,-2.009745091E-1
3.384324688E0,-1.812283039E0,6.746237874E-1,-2.034179717E-1
3.386735677E0,-1.837328553E0,6.868410707E-1,-2.052505612E-1
3.389146615E0,-1.862373948E0,6.966149211E-1,-2.076940238E-1
3.391557552E0,-1.884976029E0,7.057778835E-1,-2.095266134E-1
3.393968490E0,-1.908188820E0,7.100539207E-1,-2.119700760E-1
3.396379427E0,-1.928347349E0,7.137191296E-1,-2.131918073E-1
3.398790365E0,-1.951560259E0,7.100539207E-1,-2.144135386E-1
3.401201302E0,-1.969886184E0,7.088322043E-1,-2.162461281E-1
3.403612240E0,-1.990044713E0,7.008909583E-1,-2.174678594E-1
3.406023229E0,-2.008370638E0,6.929497123E-1,-2.199113220E-1
3.408434167E0,-2.026085854E0,6.788998246E-1,-2.223547846E-1
3.410845104E0,-2.043190002E0,6.630173326E-1,-2.229656428E-1
3.413256042E0,-2.057850838E0,6.471349001E-1,-2.235765159E-1
3.415666979E0,-2.073733091E0,6.245328784E-1,-2.254091054E-1
3.418077917E0,-2.087172270E0,6.019308567E-1,-2.266308367E-1
3.420488854E0,-2.100000381E0,5.756636858E-1,-2.272416949E-1
3.422899792E0,-2.112828493E0,5.487856269E-1,-2.278525680E-1
3.425310729E0,-2.125656605E0,5.176315308E-1,-2.290742993E-1
3.427721667E0,-2.134208918E0,4.840339720E-1,-2.296851575E-1
3.430132657E0,-2.143982649E0,4.510472715E-1,-2.284634262E-1
3.432543594E0,-2.153145552E0,4.137845337E-1,-2.309068888E-1
3.434954532E0,-2.161086798E0,3.746891916E-1,-2.309068888E-1
3.437365469E0,-2.167195559E0,3.355938494E-1,-2.290742993E-1
3.439776407E0,-2.173304081E0,2.952767611E-1,-2.296851575E-1
3.442187344E0,-2.179412842E0,2.512944937E-1,-2.309068888E-1
3.444598282E0,-2.183078051E0,2.060905099E-1,-2.290742993E-1
3.447009219E0,-2.186132431E0,1.614973694E-1,-2.296851575E-1
3.449420209E0,-2.189186573E0,1.150716543E-1,-2.284634262E-1
3.451831146E0,-2.192240953E0,6.803506613E-2,-2.278525680E-1
3.454242084E0,-2.191630125E0,2.160934173E-2,-2.266308367E-1
3.456653021E0,-2.192240953E0,-2.542724647E-2,-2.241873741E-1
3.459063959E0,-2.192240953E0,-7.368556410E-2,-2.241873741E-1
3.461474896E0,-2.190408468E0,-1.231656075E-1,-2.229656428E-1
3.463885834E0,-2.187964916E0,-1.689804643E-1,-2.211330533E-1
3.466296771E0,-2.186132431E0,-2.166279256E-1,-2.199113220E-1
3.468707709E0,-2.181856394E0,-2.624427676E-1,-2.174678594E-1
3.471118698E0,-2.176969290E0,-3.088684976E-1,-2.144135386E-1
3.473529636E0,-2.172082424E0,-3.546833694E-1,-2.119700760E-1
3.475940573E0,-2.166584730E0,-3.980547488E-1,-2.095266134E-1
3.478351511E0,-2.159865141E0,-4.414261580E-1,-2.083048970E-1
3.480762448E0,-2.153756380E0,-4.823541045E-1,-2.046397030E-1
3.483173386E0,-2.146426201E0,-5.226711631E-1,-2.028071135E-1
3.485584323E0,-2.137874126E0,-5.587121844E-1,-2.015853822E-1
3.487995261E0,-2.128710985E0,-5.941423774E-1,-1.979201883E-1
3.490406250E0,-2.120158911E0,-6.295725107E-1,-1.948658675E-1
3.492817188E0,-2.109163284E0,-6.607266068E-1,-1.924224049E-1
3.495228125E0,-2.097556829E0,-6.906589866E-1,-1.899789423E-1
3.497639063E0,-2.085950613E0,-7.181479335E-1,-1.857028902E-1
3.500050000E0,-2.074954987E0,-7.425825000E-1,-1.826485693E-1
3.502460938E0,-2.060904980E0,-7.621301413E-1,-1.814268380E-1
3.504871875E0,-2.049298525E0,-7.804561257E-1,-1.795942485E-1
3.507282813E0,-2.034027100E0,-7.951168418E-1,-1.747073233E-1
3.509693802E0,-2.021809816E0,-8.085559011E-1,-1.716530025E-1
3.512104740E0,-2.005927324E0,-8.177188635E-1,-1.698204130E-1
3.514515677E0,-1.993099093E0,-8.232166767E-1,-1.679878086E-1
3.516926615E0,-1.976605654E0,-8.250492215E-1,-1.649334878E-1
3.519337552E0,-1.961944938E0,-8.232166767E-1,-1.618791670E-1
3.521748490E0,-1.945451617E0,-8.189405799E-1,-1.606574357E-1
3.524159427E0,-1.928958297E0,-8.109993339E-1,-1.576031148E-1
3.526570365E0,-1.913686633E0,-8.012255430E-1,-1.551596522E-1
3.528981302E0,-1.897804141E0,-7.871756554E-1,-1.539379209E-1
3.531392292E0,-1.880089045E0,-7.688496709E-1,-1.527161896E-1
3.533803229E0,-1.863595724E0,-7.474694252E-1,-1.514944583E-1
3.536214167E0,-1.847102404E0,-7.230347991E-1,-1.496618688E-1
3.538625104E0,-1.831219912E0,-6.973785162E-1,-1.484401375E-1
3.541036042E0,-1.813504815E0,-6.674461365E-1,-1.478292793E-1
3.543446979E0,-1.797622323E0,-6.356811523E-1,-1.459966749E-1
3.545857917E0,-1.781129003E0,-5.984184146E-1,-1.453858167E-1
3.548268854E0,-1.763413906E0,-5.623773932E-1,-1.453858167E-1
3.550679792E0,-1.746309638E0,-5.238928795E-1,-1.441640854E-1
3.553090729E0,-1.731038094E0,-4.823541045E-1,-1.435532272E-1
3.555501719E0,-1.715155602E0,-4.395935535E-1,-1.447749585E-1
3.557912657E0,-1.699883938E0,-3.962221742E-1,-1.441640854E-1
3.560323594E0,-1.684001446E0,-3.491855860E-1,-1.447749585E-1
3.562734532E0,-1.666897297E0,-3.027598560E-1,-1.447749585E-1
3.565145469E0,-1.652236462E0,-2.545015514E-1,-1.453858167E-1
3.567556407E0,-1.636964917E0,-2.056323588E-1,-1.453858167E-1
3.569967344E0,-1.622304082E0,-1.561523080E-1,-1.466075480E-1
3.572378282E0,-1.608865142E0,-1.072831303E-1,-1.472184062E-1
3.574789271E0,-1.594204307E0,-5.780307949E-2,-1.484401375E-1
3.577200209E0,-1.582597971E0,-1.015562657E-2,-1.490510106E-1
3.579611146E0,-1.568548083E0,3.871355578E-2,-1.508836001E-1
3.582022084E0,-1.556330800E0,8.697187155E-2,-1.533270627E-1
3.584433021E0,-1.544724345E0,1.327867359E-1,-1.533270627E-1
3.586843959E0,-1.533117890E0,1.779907197E-1,-1.551596522E-1
3.589254896E0,-1.523344040E0,2.207512558E-1,-1.569922417E-1
3.591665834E0,-1.512348533E0,2.641226649E-1,-1.588248461E-1
3.594076823E0,-1.501963735E0,3.044397235E-1,-1.594357044E-1
3.596487761E0,-1.494022489E0,3.417024910E-1,-1.618791670E-1
3.598898698E0,-1.485470414E0,3.783543706E-1,-1.637117565E-1
3.601309636E0,-1.476918340E0,4.113410711E-1,-1.649334878E-1
3.603720573E0,-1.468977094E0,4.424951673E-1,-1.667660922E-1
3.606131511E0,-1.461646676E0,4.687623680E-1,-1.692095399E-1
3.608542448E0,-1.456759810E0,4.931969643E-1,-1.698204130E-1
3.610953386E0,-1.450651169E0,5.145772099E-1,-1.716530025E-1
3.613364323E0,-1.448207617E0,5.316814184E-1,-1.722638607E-1
3.615775313E0,-1.443931580E0,5.487856269E-1,-1.747073233E-1
3.618186250E0,-1.441488147E0,5.610029697E-1,-1.759290546E-1
3.620597188E0,-1.439655542E0,5.677224398E-1,-1.783725172E-1
3.623008125E0,-1.438433886E0,5.719985366E-1,-1.789833754E-1
3.625419063E0,-1.436601281E0,5.726093650E-1,-1.802051067E-1
3.627830000E0,-1.436601281E0,5.695550442E-1,-1.808159798E-1
3.630240938E0,-1.437822938E0,5.634464025E-1,-1.814268380E-1
3.632651875E0,-1.439044714E0,5.530617237E-1,-1.820377111E-1
3.635062865E0,-1.441488147E0,5.396226645E-1,-1.838703007E-1
3.637473802E0,-1.445764184E0,5.212967396E-1,-1.838703007E-1
3.639884740E0,-1.450651169E0,5.005273223E-1,-1.850920320E-1
3.642295677E0,-1.454927206E0,4.773144722E-1,-1.857028902E-1
3.644706615E0,-1.460425019E0,4.498255551E-1,-1.863137633E-1
3.647117552E0,-1.467144489E0,4.205040336E-1,-1.850920320E-1
3.649528490E0,-1.473863959E0,3.862956166E-1,-1.857028902E-1
3.651939427E0,-1.482416153E0,3.502545953E-1,-1.850920320E-1
3.654350365E0,-1.492189884E0,3.123809695E-1,-1.857028902E-1
3.656761354E0,-1.501352906E0,2.714530230E-1,-1.850920320E-1
3.659172292E0,-1.510515928E0,2.286925018E-1,-1.850920320E-1
3.661583229E0,-1.522733212E0,1.840993762E-1,-1.844811589E-1
3.663994167E0,-1.536172152E0,1.352301836E-1,-1.838703007E-1
3.666405104E0,-1.547778606E0,8.880446851E-2,-1.826485693E-1
3.668816042E0,-1.561217666E0,4.054614902E-2,-1.802051067E-1
3.671226979E0,-1.574656725E0,-9.544761851E-3,-1.795942485E-1
3.673637917E0,-1.588706613E0,-5.963567272E-2,-1.789833754E-1
3.676048907E0,-1.605199933E0,-1.109483168E-1,-1.771507859E-1
3.678459844E0,-1.619860649E0,-1.616500914E-1,-1.740964651E-1
3.680870782E0,-1.635132313E0,-2.111301422E-1,-1.734855920E-1
3.683281719E0,-1.652236462E0,-2.624427676E-1,-1.704312712E-1
3.685692657E0,-1.667508125E0,-3.113119602E-1,-1.692095399E-1
3.688103594E0,-1.687055826E0,-3.607920110E-1,-1.667660922E-1
3.690514532E0,-1.703549147E0,-4.072177410E-1,-1.643226296E-1
3.692925469E0,-1.723096848E0,-4.560869038E-1,-1.637117565E-1
3.695336407E0,-1.740200996E0,-5.000692010E-1,-1.594357044E-1
3.697747396E0,-1.759137869E0,-5.428296924E-1,-1.582139730E-1
3.700158334E0,-1.779296398E0,-5.843685269E-1,-1.551596522E-1
3.702569271E0,-1.798844099E0,-6.246855855E-1,-1.508836001E-1
3.704980209E0,-1.817780852E0,-6.613374949E-1,-1.490510106E-1
3.707391146E0,-1.838550329E0,-6.949350238E-1,-1.459966749E-1
3.709802084E0,-1.858097911E0,-7.279217243E-1,-1.429423541E-1
3.712213021E0,-1.877034783E0,-7.578541040E-1,-1.404989064E-1
3.714623959E0,-1.899025917E0,-7.847321630E-1,-1.374445707E-1
3.717034948E0,-1.919184446E0,-8.085559011E-1,-1.343902498E-1
3.719445886E0,-1.940564632E0,-8.299361467E-1,-1.313359290E-1
3.721856823E0,-1.960723281E0,-8.470403552E-1,-1.288924664E-1
3.724267761E0,-1.981492639E0,-8.623120189E-1,-1.258381456E-1
3.726678698E0,-2.002872944E0,-8.739184141E-1,-1.215620935E-1
3.729089636E0,-2.023642302E0,-8.812488317E-1,-1.178968996E-1
3.731500573E0,-2.043800831E0,-8.873574734E-1,-1.148425788E-1
3.733911511E0,-2.062737703E0,-8.879683018E-1,-1.123991162E-1
3.736322500E0,-2.084117889E0,-8.873574734E-1,-1.099556610E-1
3.738733438E0,-2.103665590E0,-8.806379437E-1,-1.075121984E-1
3.741144375E0,-2.122602463E0,-8.726966977E-1,-1.044578776E-1
3.743555313E0,-2.140928268E0,-8.617011309E-1,-1.007926911E-1
3.745966250E0,-2.160475969E0,-8.458186388E-1,-9.896009415E-2
3.748377188E0,-2.178191185E0,-8.281035423E-1,-9.712749720E-2
3.750788125E0,-2.198349714E0,-8.073341846E-1,-9.285144508E-2
3.753199063E0,-2.214843035E0,-7.828995585E-1,-9.101885557E-2
3.755610000E0,-2.232558012E0,-7.560214996E-1,-8.857539296E-2
3.758020990E0,-2.249051332E0,-7.267000079E-1,-8.674279600E-2
3.760431927E0,-2.264322996E0,-6.943241954E-1,-8.429934084E-2
3.762842865E0,-2.279594660E0,-6.595048904E-1,-8.368847519E-2
3.765253802E0,-2.295477152E0,-6.216312647E-1,-8.246674389E-2
3.767664740E0,-2.309526920E0,-5.849793553E-1,-8.063415438E-2
3.770075677E0,-2.322966099E0,-5.452731848E-1,-7.941242307E-2
3.772486615E0,-2.335794210E0,-5.037343502E-1,-7.880155742E-2
3.774897552E0,-2.348622322E0,-4.603629708E-1,-7.696896046E-2
3.777308542E0,-2.360839605E0,-4.169915617E-1,-7.635809481E-2
3.779719479E0,-2.371224403E0,-3.730092943E-1,-7.635809481E-2
3.782130417E0,-2.380387306E0,-3.259727061E-1,-7.574722916E-2
3.784541354E0,-2.389550209E0,-2.789361179E-1,-7.574722916E-2
3.786952292E0,-2.399324179E0,-2.337321341E-1,-7.513637096E-2
3.789363229E0,-2.406654596E0,-1.866955459E-1,-7.513637096E-2
3.791774167E0,-2.412763119E0,-1.408806890E-1,-7.574722916E-2
3.794185104E0,-2.418871880E0,-9.445496649E-2,-7.757982612E-2
3.796596042E0,-2.424369574E0,-4.864010960E-2,-7.757982612E-2
3.799007032E0,-2.426202297E0,-4.657844082E-3,-7.819069177E-2
3.801417969E0,-2.430478334E0,3.810269013E-2,-7.880155742E-2
3.803828907E0,-2.433532476E0,8.147408813E-2,-7.880155742E-2
3.806239844E0,-2.434754372E0,1.236237586E-1,-8.063415438E-2
3.808650782E0,-2.435976028E0,1.627191007E-1,-8.246674389E-2
3.811061719E0,-2.433532476E0,2.018144578E-1,-8.429934084E-2
3.813472657E0,-2.432921648E0,2.390772104E-1,-8.552107215E-2
3.815883594E0,-2.431699991E0,2.738964856E-1,-8.796452731E-2
3.818294532E0,-2.427423954E0,3.074940443E-1,-8.857539296E-2
3.820705521E0,-2.422537088E0,3.392590284E-1,-9.101885557E-2
3.823116459E0,-2.418871880E0,3.667479455E-1,-9.346231073E-2
3.825527396E0,-2.413373947E0,3.936260045E-1,-9.529490769E-2
3.827938334E0,-2.406654596E0,4.174497128E-1,-9.651663154E-2
3.830349271E0,-2.398713350E0,4.369973838E-1,-9.712749720E-2
3.832760209E0,-2.388328552E0,4.571559429E-1,-9.957095981E-2
3.835171146E0,-2.378554821E0,4.736492932E-1,-1.026252806E-1
3.837582136E0,-2.368170023E0,4.876991808E-1,-1.050687432E-1
3.839993073E0,-2.357174397E0,4.980838597E-1,-1.075121984E-1
3.842404011E0,-2.343735456E0,5.060251355E-1,-1.075121984E-1
3.844814948E0,-2.329685450E0,5.127446055E-1,-1.093447953E-1
3.847225886E0,-2.315024853E0,5.151880980E-1,-1.123991162E-1
3.849636823E0,-2.299142361E0,5.139663815E-1,-1.117882580E-1
3.852047761E0,-2.281427145E0,5.115228891E-1,-1.148425788E-1
3.854458698E0,-2.264322996E0,5.060251355E-1,-1.160643101E-1
3.856869636E0,-2.245386124E0,4.968621433E-1,-1.178968996E-1
3.859280625E0,-2.226449490E0,4.870882928E-1,-1.197294965E-1
3.861691563E0,-2.206901789E0,4.724275470E-1,-1.215620935E-1
3.864102500E0,-2.184910536E0,4.577668011E-1,-1.221729591E-1
3.866513438E0,-2.162308693E0,4.394408464E-1,-1.233946830E-1
3.868924375E0,-2.140317440E0,4.192823172E-1,-1.240055487E-1
3.871335313E0,-2.115882874E0,3.954585791E-1,-1.264490038E-1
3.873746250E0,-2.090226650E0,3.740783334E-1,-1.258381456E-1
3.876157240E0,-2.065792084E0,3.472002745E-1,-1.276707351E-1
3.878568177E0,-2.038913965E0,3.203222156E-1,-1.264490038E-1
3.880979115E0,-2.012035847E0,2.897789776E-1,-1.258381456E-1
3.883390052E0,-1.984546900E0,2.586248815E-1,-1.270598769E-1
3.885800990E0,-1.957058072E0,2.262490392E-1,-1.270598769E-1
3.888211927E0,-1.927736521E0,1.920406222E-1,-1.258381456E-1
3.890622865E0,-1.897804141E0,1.584430486E-1,-1.270598769E-1
3.893033802E0,-1.867260933E0,1.242346242E-1,-1.270598769E-1
3.895444740E0,-1.836106777E0,8.758273721E-2,-1.264490038E-1
3.897855729E0,-1.804341793E0,5.154171586E-2,-1.264490038E-1
3.900266667E0,-1.771965981E0,1.550069358E-2,-1.252272725E-1
3.902677604E0,-1.738979340E0,-2.115119249E-2,-1.252272725E-1
3.905088542E0,-1.707214355E0,-5.902481079E-2,-1.240055487E-1
3.907499479E0,-1.673005939E0,-9.506583214E-2,-1.227838174E-1
3.909910417E0,-1.640019178E0,-1.323285848E-1,-1.221729591E-1
3.912321354E0,-1.605199933E0,-1.683696061E-1,-1.215620935E-1
3.914732344E0,-1.570380688E0,-2.044106275E-1,-1.197294965E-1
3.917143282E0,-1.535561323E0,-2.392299175E-1,-1.191186309E-1
3.919554219E0,-1.498298645E0,-2.740492225E-1,-1.185077652E-1
3.921965157E0,-1.462257624E0,-3.070359230E-1,-1.166751757E-1
3.924376094E0,-1.426827431E0,-3.394117355E-1,-1.160643101E-1
3.926787032E0,-1.388953805E0,-3.711767197E-1,-1.148425788E-1
3.929197969E0,-1.352912784E0,-4.011090994E-1,-1.136208475E-1
3.931608907E0,-1.313817382E0,-4.316523373E-1,-1.123991162E-1
3.934019896E0,-1.275943756E0,-4.591412544E-1,-1.111773923E-1
3.936430834E0,-1.239902735E0,-4.866301417E-1,-1.093447953E-1
3.938841771E0,-1.199585676E0,-5.098429918E-1,-1.081230640E-1
3.941252709E0,-1.159268618E0,-5.312232971E-1,-1.062904745E-1
3.943663646E0,-1.120784163E0,-5.526035428E-1,-1.056796089E-1
3.946074584E0,-1.082299709E0,-5.733729601E-1,-1.044578776E-1
3.948485521E0,-1.042593479E0,-5.904771686E-1,-1.026252806E-1
3.950896459E0,-1.001665473E0,-6.075813770E-1,-1.032361463E-1
3.953307396E0,-9.607375860E-1,-6.210203767E-1,-1.007926911E-1
3.955718386E0,-9.210313559E-1,-6.332377195E-1,-1.007926911E-1
3.958129323E0,-8.794925809E-1,-6.430115104E-1,-9.957095981E-2
3.960540261E0,-8.367320299E-1,-6.497310400E-1,-9.896009415E-2
3.962951198E0,-7.976366878E-1,-6.564505696E-1,-9.896009415E-2
3.965362136E0,-7.542653084E-1,-6.588940024E-1,-9.834922850E-2
3.967773073E0,-7.133373618E-1,-6.595048904E-1,-9.834922850E-2
3.970184011E0,-6.699659228E-1,-6.576722860E-1,-9.651663154E-2
3.972595000E0,-6.278162599E-1,-6.564505696E-1,-9.651663154E-2
3.975005938E0,-5.850557685E-1,-6.503419280E-1,-9.651663154E-2
3.977416875E0,-5.441278219E-1,-6.448441148E-1,-9.712749720E-2
3.979827813E0,-5.007563829E-1,-6.338485479E-1,-9.651663154E-2
3.982238750E0,-4.586067200E-1,-6.234638691E-1,-9.773836285E-2
3.984649688E0,-4.164570570E-1,-6.112465858E-1,-9.712749720E-2
3.987060625E0,-3.743073940E-1,-5.929206014E-1,-9.834922850E-2
3.989471563E0,-3.309359848E-1,-5.764272809E-1,-9.834922850E-2
3.991882500E0,-2.887863219E-1,-5.581013560E-1,-9.773836285E-2
3.994293490E0,-2.484692484E-1,-5.361102223E-1,-9.957095981E-2
3.996704427E0,-2.044869810E-1,-5.128973126E-1,-1.001818255E-1
3.999115365E0,-1.629481763E-1,-4.884627461E-1,-1.007926911E-1
4.001526302E0,-1.195767820E-1,-4.615846872E-1,-1.026252806E-1
4.003937240E0,-7.864884287E-2,-4.340957701E-1,-1.032361463E-1
4.006348177E0,-3.772090003E-2,-4.053851366E-1,-1.032361463E-1
4.008759115E0,2.596175298E-3,-3.766745031E-1,-1.044578776E-1
4.011170052E0,4.413498193E-2,-3.436878026E-1,-1.056796089E-1
4.013581042E0,8.567378670E-2,-3.094793558E-1,-1.081230640E-1
4.015991979E0,1.241582632E-1,-2.764926851E-1,-1.075121984E-1
4.018402917E0,1.650862098E-1,-2.416733801E-1,-1.087339297E-1
4.020813854E0,2.054032832E-1,-2.074649483E-1,-1.105665267E-1
4.023224792E0,2.444986254E-1,-1.720348001E-1,-1.099556610E-1
4.025635729E0,2.842048407E-1,-1.341611743E-1,-1.117882580E-1
4.028046667E0,3.233001828E-1,-9.873101860E-2,-1.142317131E-1
4.030457604E0,3.611738086E-1,-6.146826968E-2,-1.160643101E-1
4.032868594E0,4.002691507E-1,-2.420551702E-2,-1.172860414E-1
4.035279532E0,4.363101721E-1,1.305723470E-2,-1.172860414E-1
4.037690469E0,4.741837978E-1,4.970912263E-2,-1.172860414E-1
4.040101407E0,5.108356476E-1,8.758273721E-2,-1.185077652E-1
4.042512344E0,5.474875569E-1,1.224020272E-1,-1.203403622E-1
4.044923282E0,5.829176903E-1,1.590539217E-1,-1.209512278E-1
4.047334219E0,6.189587116E-1,1.950949430E-1,-1.227838174E-1
4.049745209E0,6.537780166E-1,2.293033600E-1,-1.227838174E-1
4.052156146E0,6.879864335E-1,2.641226649E-1,-1.227838174E-1
4.054567084E0,7.234166265E-1,2.989419401E-1,-1.233946830E-1
4.056978021E0,7.570141554E-1,3.313177824E-1,-1.246164143E-1
4.059388959E0,7.906117439E-1,3.624718785E-1,-1.258381456E-1
4.061799896E0,8.229875565E-1,3.917934000E-1,-1.276707351E-1
4.064210834E0,8.565851450E-1,4.223366380E-1,-1.258381456E-1
4.066621771E0,8.883501291E-1,4.498255551E-1,-1.276707351E-1
4.069032709E0,9.201150537E-1,4.760927260E-1,-1.276707351E-1
4.071443698E0,9.518800378E-1,5.005273223E-1,-1.270598769E-1
4.073854636E0,9.824233055E-1,5.249619484E-1,-1.264490038E-1
4.076265573E0,1.014188290E0,5.463421941E-1,-1.270598769E-1
4.078676511E0,1.043509722E0,5.652790070E-1,-1.276707351E-1
4.081087448E0,1.072220445E0,5.836049318E-1,-1.270598769E-1
4.083498386E0,1.100931048E0,6.000983119E-1,-1.264490038E-1
4.085909323E0,1.130252600E0,6.153699160E-1,-1.264490038E-1
4.088320261E0,1.157741427E0,6.263654828E-1,-1.258381456E-1
4.090731250E0,1.187062979E0,6.385827661E-1,-1.252272725E-1
4.093142188E0,1.212719321E0,6.453022957E-1,-1.233946830E-1
4.095553125E0,1.240208268E0,6.520217657E-1,-1.233946830E-1
4.097964063E0,1.265864491E0,6.562978625E-1,-1.221729591E-1
4.100375000E0,1.289688230E0,6.581304669E-1,-1.209512278E-1
4.102785938E0,1.314733744E0,6.575195789E-1,-1.203403622E-1
4.105196875E0,1.338557482E0,6.550761461E-1,-1.197294965E-1
4.107607813E0,1.362381220E0,6.508000493E-1,-1.178968996E-1
4.110018802E0,1.385594010E0,6.434696913E-1,-1.166751757E-1
4.112429740E0,1.406363487E0,6.349175572E-1,-1.142317131E-1
4.114840677E0,1.428965449E0,6.239219904E-1,-1.148425788E-1
4.117251615E0,1.449123979E0,6.110938787E-1,-1.123991162E-1
4.119662552E0,1.470504284E0,5.958222151E-1,-1.105665267E-1
4.122073490E0,1.488219261E0,5.787180066E-1,-1.081230640E-1
4.124484427E0,1.507156134E0,5.610029697E-1,-1.075121984E-1
4.126895417E0,1.524871230E0,5.408443809E-1,-1.062904745E-1
4.129306354E0,1.542586327E0,5.182424188E-1,-1.044578776E-1
4.131717292E0,1.560301304E0,4.950295389E-1,-1.026252806E-1
4.134128229E0,1.576183796E0,4.712058306E-1,-1.020144150E-1
4.136539167E0,1.590844631E0,4.449386299E-1,-9.896009415E-2
4.138950104E0,1.604283571E0,4.180605710E-1,-9.834922850E-2
4.141361042E0,1.618944407E0,3.881282210E-1,-9.529490769E-2
4.143771979E0,1.632994294E0,3.588066995E-1,-9.529490769E-2
4.146182917E0,1.645211577E0,3.276526034E-1,-9.407317638E-2
4.148593907E0,1.656207085E0,2.964984775E-1,-9.162971377E-2
4.151004844E0,1.667202711E0,2.635118067E-1,-9.101885557E-2
4.153415782E0,1.680030823E0,2.317468226E-1,-8.918625861E-2
4.155826719E0,1.687972069E0,1.987601221E-1,-8.735366166E-2
4.158237657E0,1.697135091E0,1.645517051E-1,-8.674279600E-2
4.160648594E0,1.703854561E0,1.297324002E-1,-8.491020650E-2
4.163059532E0,1.713628411E0,9.674570709E-2,-8.429934084E-2
4.165470521E0,1.721569657E0,6.314814836E-2,-8.368847519E-2
4.167881459E0,1.727678299E0,3.016144782E-2,-8.307760954E-2
4.170292396E0,1.734397769E0,-1.603520010E-3,-8.185587823E-2
4.172703334E0,1.739895582E0,-3.520108387E-2,-8.063415438E-2
4.175114271E0,1.745393395E0,-6.757691503E-2,-8.185587823E-2
4.177525209E0,1.749058604E0,-9.812015295E-2,-7.941242307E-2
4.179936146E0,1.753334641E0,-1.280525327E-1,-8.002328873E-2
4.182347084E0,1.755167246E0,-1.567631811E-1,-7.941242307E-2
4.184758021E0,1.756388903E0,-1.854738146E-1,-7.880155742E-2
4.187169011E0,1.760054111E0,-2.129627317E-1,-8.002328873E-2
4.189579948E0,1.762497663E0,-2.392299175E-1,-7.880155742E-2
4.191990886E0,1.764330149E0,-2.612210512E-1,-8.002328873E-2
4.194401823E0,1.764941096E0,-2.838230431E-1,-8.063415438E-2
4.196812761E0,1.765551925E0,-3.045924604E-1,-8.063415438E-2
4.199223698E0,1.763108492E0,-3.241401315E-1,-8.063415438E-2
4.201634636E0,1.762497663E0,-3.406334817E-1,-8.124501258E-2
4.204045625E0,1.762497663E0,-3.552942276E-1,-8.124501258E-2
4.206456563E0,1.759443283E0,-3.675115108E-1,-8.124501258E-2
4.208867500E0,1.757610679E0,-3.785070777E-1,-8.307760954E-2
4.211278438E0,1.753945470E0,-3.852266073E-1,-8.429934084E-2
4.213689375E0,1.749669433E0,-3.919461071E-1,-8.307760954E-2
4.216100313E0,1.747226000E0,-3.937787116E-1,-8.429934084E-2
4.218511250E0,1.743560791E0,-3.962221742E-1,-8.613193035E-2
4.220922188E0,1.739284754E0,-3.937787116E-1,-8.674279600E-2
4.223333177E0,1.734397769E0,-3.895026445E-1,-8.796452731E-2
4.225744115E0,1.730732679E0,-3.821722865E-1,-8.979712427E-2
4.228155052E0,1.725845695E0,-3.730092943E-1,-9.040798992E-2
4.230565990E0,1.720347881E0,-3.626246154E-1,-9.162971377E-2
4.232976927E0,1.713017583E0,-3.497964442E-1,-9.162971377E-2
4.235387865E0,1.708130598E0,-3.326922357E-1,-9.346231073E-2
4.237798802E0,1.703243732E0,-3.137554228E-1,-9.529490769E-2
4.240209792E0,1.695913315E0,-2.917642891E-1,-9.651663154E-2
4.242620729E0,1.691026449E0,-2.685514390E-1,-9.712749720E-2
4.245031667E0,1.683696032E0,-2.428951114E-1,-9.896009415E-2
4.247442604E0,1.676365614E0,-2.160170525E-1,-9.957095981E-2
4.249853542E0,1.670256972E0,-1.866955459E-1,-9.896009415E-2
4.252264479E0,1.663537502E0,-1.555414498E-1,-1.001818255E-1
4.254675417E0,1.656818032E0,-1.231656075E-1,-1.014035568E-1
4.257086354E0,1.649487615E0,-8.895718306E-2,-1.032361463E-1
4.259497344E0,1.643989801E0,-5.169443041E-2,-1.044578776E-1
4.261908282E0,1.636659503E0,-1.320995111E-2,-1.044578776E-1
4.264319219E0,1.631161690E0,2.466366626E-2,-1.050687432E-1
4.266730157E0,1.623831272E0,6.436987966E-2,-1.062904745E-1
4.269141094E0,1.617111802E0,1.046869531E-1,-1.062904745E-1
4.271552032E0,1.611003160E0,1.462257504E-1,-1.075121984E-1
4.273962969E0,1.603672743E0,1.865428388E-1,-1.087339297E-1
4.276373907E0,1.596342444E0,2.280816436E-1,-1.087339297E-1
4.278784896E0,1.592066288E0,2.720639110E-1,-1.087339297E-1
4.281195834E0,1.587179422E0,3.148244321E-1,-1.093447953E-1
4.283606771E0,1.582292438E0,3.569740951E-1,-1.093447953E-1
4.286017709E0,1.574962139E0,3.966803253E-1,-1.087339297E-1
4.288428646E0,1.570075154E0,4.388299882E-1,-1.087339297E-1
4.290839584E0,1.564577460E0,4.785361886E-1,-1.093447953E-1
4.293250521E0,1.560912251E0,5.176315308E-1,-1.075121984E-1
4.295661511E0,1.556636214E0,5.567268729E-1,-1.087339297E-1
4.298072448E0,1.551749229E0,5.939896107E-1,-1.069013327E-1
4.300483386E0,1.547473192E0,6.288089156E-1,-1.069013327E-1
4.302894323E0,1.544418931E0,6.617956161E-1,-1.056796089E-1
4.305305261E0,1.541975379E0,6.941714883E-1,-1.056796089E-1
4.307716198E0,1.540142775E0,7.247146964E-1,-1.038470119E-1
4.310127136E0,1.537699342E0,7.528144717E-1,-1.032361463E-1
4.312538125E0,1.535866737E0,7.778599262E-1,-1.020144150E-1
4.314949011E0,1.534034133E0,8.010727763E-1,-1.001818255E-1
4.317360000E0,1.532201529E0,8.230639100E-1,-9.896009415E-2
4.319770938E0,1.531590700E0,8.401681185E-1,-9.834922850E-2
4.322181875E0,1.532812476E0,8.572723866E-1,-9.712749720E-2
4.324592813E0,1.532201529E0,8.707113862E-1,-9.468404204E-2
4.327003750E0,1.534645081E0,8.804852366E-1,-9.346231073E-2
4.329414688E0,1.535255909E0,8.878155947E-1,-9.101885557E-2
4.331825677E0,1.536477685E0,8.927025199E-1,-8.918625861E-2
4.334236615E0,1.538310289E0,8.951459527E-1,-8.735366166E-2
4.336647552E0,1.540753722E0,8.939242363E-1,-8.552107215E-2
4.339058490E0,1.546251416E0,8.896481991E-1,-8.246674389E-2
4.341469427E0,1.550527573E0,8.829286695E-1,-8.002328873E-2
4.343880365E0,1.553581834E0,8.725439906E-1,-7.819069177E-2
4.346291302E0,1.557857871E0,8.591049314E-1,-7.574722916E-2
4.348702240E0,1.562744856E0,8.444442153E-1,-7.391463965E-2
4.351113229E0,1.569464326E0,8.267291188E-1,-7.147117704E-2
4.353524167E0,1.576794744E0,8.065705895E-1,-6.902772188E-2
4.355935104E0,1.582903385E0,7.821359634E-1,-6.658425927E-2
4.358346042E0,1.590233684E0,7.570905089E-1,-6.475166976E-2
4.360756979E0,1.599396706E0,7.296016216E-1,-6.230820715E-2
4.363167917E0,1.606116176E0,6.996692419E-1,-5.986474827E-2
4.365578854E0,1.616500974E0,6.679042578E-1,-5.742128938E-2
4.367989792E0,1.625663877E0,6.336958408E-1,-5.558869615E-2
4.370400782E0,1.636659503E0,6.000983119E-1,-5.375609919E-2
4.372811719E0,1.645822406E0,5.628355145E-1,-5.131264031E-2
4.375222657E0,1.658039689E0,5.261836648E-1,-4.825831577E-2
4.377633594E0,1.669035316E0,4.870882928E-1,-4.642572254E-2
4.380044532E0,1.681252599E0,4.461603761E-1,-4.398226365E-2
4.382455469E0,1.692859054E0,4.070650041E-1,-4.337139800E-2
4.384866407E0,1.706297994E0,3.673588037E-1,-4.153880477E-2
4.387277396E0,1.717904449E0,3.270417452E-1,-3.909534588E-2
4.389688334E0,1.730732679E0,2.861137986E-1,-3.726275265E-2
4.392099271E0,1.746004224E0,2.457967103E-1,-3.604102135E-2
4.394510209E0,1.760054111E0,2.054796368E-1,-3.481929377E-2
4.396921146E0,1.773493171E0,1.663842946E-1,-3.420842811E-2
4.399332084E0,1.788153887E0,1.285106838E-1,-3.237583488E-2
4.401743021E0,1.802814722E0,9.063705802E-2,-3.176496923E-2
4.404153959E0,1.819308043E0,5.520690605E-2,-2.993237413E-2
4.406564948E0,1.833968759E0,2.038761228E-2,-2.932151034E-2
4.408975886E0,1.849851251E0,-1.504254527E-2,-2.871064469E-2
4.411386823E0,1.865733743E0,-4.619665071E-2,-2.748891525E-2
4.413797761E0,1.883448839E0,-7.490729541E-2,-2.748891525E-2
4.416208698E0,1.899331331E0,-1.030070707E-1,-2.809977904E-2
4.418619636E0,1.915824652E0,-1.292742640E-1,-2.748891525E-2
4.421030573E0,1.931707144E0,-1.530979872E-1,-2.687804960E-2
4.423441563E0,1.949422240E0,-1.756999791E-1,-2.809977904E-2
4.425852500E0,1.966526389E0,-1.940259188E-1,-2.809977904E-2
4.428263438E0,1.983019829E0,-2.111301422E-1,-2.871064469E-2
4.430674375E0,2.001345634E0,-2.245691717E-1,-2.809977904E-2
4.433085313E0,2.019060850E0,-2.349538654E-1,-2.871064469E-2
4.435496250E0,2.034943342E0,-2.435059696E-1,-2.993237413E-2
4.437907188E0,2.052047491E0,-2.508363426E-1,-2.993237413E-2
4.440318125E0,2.069151640E0,-2.520580888E-1,-3.054323979E-2
4.442729115E0,2.085644960E0,-2.532798052E-1,-3.237583488E-2
4.445140052E0,2.102749348E0,-2.502254844E-1,-3.359756246E-2
4.447550990E0,2.121685982E0,-2.422842383E-1,-3.420842811E-2
4.449961927E0,2.136346817E0,-2.355647236E-1,-3.420842811E-2
4.452372865E0,2.153450966E0,-2.239582986E-1,-3.481929377E-2
4.454783802E0,2.169944525E0,-2.111301422E-1,-3.787361458E-2
4.457194740E0,2.185826778E0,-1.946367919E-1,-3.848448023E-2
4.459605729E0,2.201709270E0,-1.763108522E-1,-3.787361458E-2
4.462016667E0,2.215759277E0,-1.573740393E-1,-4.031707719E-2
4.464427604E0,2.232252598E0,-1.323285848E-1,-4.153880477E-2
4.466838542E0,2.246302605E0,-1.060613990E-1,-4.214967042E-2
4.469249479E0,2.260963202E0,-7.979421318E-2,-4.337139800E-2
4.471660417E0,2.276234865E0,-4.986183718E-2,-4.459312931E-2
4.474071354E0,2.289062977E0,-1.931859925E-2,-4.459312931E-2
4.476482292E0,2.302502155E0,1.305723470E-2,-4.581485689E-2
4.478893282E0,2.314719439E0,4.665479809E-2,-4.703658819E-2
4.481304219E0,2.326325893E0,8.086322248E-2,-4.825831577E-2
4.483715157E0,2.337932110E0,1.175151095E-1,-4.703658819E-2
4.486126094E0,2.348927736E0,1.535561383E-1,-4.764745384E-2
4.488537032E0,2.359312534E0,1.908188909E-1,-4.764745384E-2
4.490947969E0,2.369697094E0,2.286925018E-1,-4.886918142E-2
4.493358907E0,2.380692720E0,2.659552395E-1,-4.948004708E-2
4.495769844E0,2.388633966E0,3.038288653E-1,-4.764745384E-2
4.498180834E0,2.395964384E0,3.410916328E-1,-4.764745384E-2
4.500591771E0,2.403294802E0,3.789652288E-1,-4.886918142E-2
4.503002709E0,2.410625219E0,4.162279963E-1,-4.703658819E-2
4.505413646E0,2.416122913E0,4.510472715E-1,-4.642572254E-2
4.507824584E0,2.422231674E0,4.870882928E-1,-4.520399496E-2
4.510235521E0,2.425285816E0,5.200750232E-1,-4.459312931E-2
4.512646459E0,2.430172920E0,5.536725521E-1,-4.398226365E-2
4.515057448E0,2.432005405E0,5.829941034E-1,-4.153880477E-2
4.517468386E0,2.434448957E0,6.141481996E-1,-3.909534588E-2
4.519879323E0,2.438114166E0,6.416370869E-1,-3.726275265E-2
4.522290261E0,2.439335823E0,6.697368622E-1,-3.604102135E-2
4.524701198E0,2.438724995E0,6.929497123E-1,-3.420842811E-2
4.527112136E0,2.437503099E0,7.155517340E-1,-3.176496923E-2
4.529523073E0,2.436281443E0,7.375428677E-1,-2.932151034E-2
4.531934063E0,2.434448957E0,7.546470761E-1,-2.687804960E-2
4.534345000E0,2.432005405E0,7.717512846E-1,-2.565632015E-2
4.536755938E0,2.426507711E0,7.858011723E-1,-2.321286127E-2
4.539166875E0,2.423453331E0,7.961859107E-1,-1.954767294E-2
4.541577813E0,2.416733742E0,8.065705895E-1,-1.588248461E-2
4.543988750E0,2.411236048E0,8.126792312E-1,-1.282816008E-2
4.546399688E0,2.403905630E0,8.169552684E-1,-1.038470119E-2
4.548810625E0,2.396575212E0,8.175661564E-1,-9.162971750E-3
4.551221615E0,2.386801481E0,8.163444400E-1,-4.886918236E-3
4.553632552E0,2.378249407E0,8.132901192E-1,-6.108647794E-4
4.556043490E0,2.368475437E0,8.065705895E-1,1.832594397E-3
4.558454427E0,2.356868982E0,7.992402315E-1,4.276053514E-3
4.560865365E0,2.345262527E0,7.870228887E-1,7.330377586E-3
4.563276302E0,2.331212759E0,7.741947770E-1,9.773836471E-3
4.565687240E0,2.317773581E0,7.577013969E-1,1.343902480E-2
4.568098229E0,2.303723812E0,7.405971885E-1,1.588248461E-2
4.570509167E0,2.287841320E0,7.216603756E-1,2.015853859E-2
4.572920104E0,2.273180485E0,6.996692419E-1,2.321286127E-2
4.575331042E0,2.255465508E0,6.746237874E-1,2.687804960E-2
4.577741979E0,2.237139463E0,6.501892209E-1,2.871064469E-2
4.580152917E0,2.219424486E0,6.227002740E-1,3.237583488E-2
4.582563854E0,2.201709270E0,5.933787823E-1,3.604102135E-2
4.584974792E0,2.180939913E0,5.628355145E-1,3.787361458E-2
4.587385782E0,2.161392212E0,5.329031348E-1,4.092793912E-2
4.589796719E0,2.140622854E0,4.993056059E-1,4.459312931E-2
4.592207657E0,2.117409945E0,4.657080472E-1,4.703658819E-2
4.594618594E0,2.097251415E0,4.321104586E-1,4.764745384E-2
4.597029532E0,2.074038744E0,3.966803253E-1,5.009091273E-2
4.599440469E0,2.050825834E0,3.600284159E-1,5.192350596E-2
4.601851459E0,2.026391268E0,3.252091408E-1,5.436696485E-2
4.604262396E0,2.002567530E0,2.903898358E-1,5.681042373E-2
4.606673334E0,1.976300240E0,2.531270981E-1,5.864302069E-2
4.609084271E0,1.950644016E0,2.164752036E-1,5.986474827E-2
4.611495209E0,1.925598502E0,1.804341823E-1,6.108647957E-2
4.613906146E0,1.899331331E0,1.443931609E-1,6.291907281E-2
4.616317084E0,1.871842384E0,1.095738709E-1,6.475166976E-2
4.618728021E0,1.844353437E0,7.536543906E-2,6.536252797E-2
4.621139011E0,1.816253662E0,3.993528336E-2,6.597339362E-2
4.623549948E0,1.788764834E0,7.559451740E-3,6.841685623E-2
4.625960886E0,1.760665059E0,-2.420551702E-2,6.902772188E-2
4.628371823E0,1.731954336E0,-5.597048625E-2,7.086031139E-2
4.630782761E0,1.702632904E0,-8.712458611E-2,7.208204269E-2
4.633193698E0,1.670867920E0,-1.164461002E-1,7.147117704E-2
4.635604636E0,1.641546369E0,-1.421024203E-1,7.147117704E-2
4.638015625E0,1.610392332E0,-1.683696061E-1,7.269290835E-2
4.640426563E0,1.580459952E0,-1.946367919E-1,7.269290835E-2
4.642837500E0,1.548694968E0,-2.172387838E-1,7.269290835E-2
4.645248438E0,1.518151641E0,-2.386190593E-1,7.330377400E-2
4.647659375E0,1.485775828E0,-2.587775886E-1,7.330377400E-2
4.650070313E0,1.454621792E0,-2.771035433E-1,7.391463965E-2
4.652481250E0,1.421635032E0,-2.942077518E-1,7.452550530E-2
4.654892240E0,1.389259219E0,-3.094793558E-1,7.391463965E-2
4.657303177E0,1.357494235E0,-3.210858107E-1,7.391463965E-2
4.659714115E0,1.323896646E0,-3.333030939E-1,7.269290835E-2
4.662125052E0,1.290910006E0,-3.424660563E-1,7.391463965E-2
4.664535990E0,1.256701589E0,-3.504073024E-1,7.208204269E-2
4.666946927E0,1.224325776E0,-3.552942276E-1,7.147117704E-2
4.669357865E0,1.190728188E0,-3.583485484E-1,7.269290835E-2
4.671768854E0,1.156519771E0,-3.614028692E-1,7.269290835E-2
4.674179792E0,1.122922182E0,-3.614028692E-1,7.269290835E-2
4.676590729E0,1.088102937E0,-3.589594066E-1,7.208204269E-2
4.679001667E0,1.055116177E0,-3.552942276E-1,7.086031139E-2
4.681412604E0,1.021518588E0,-3.491855860E-1,7.208204269E-2
4.683823542E0,9.866993427E-1,-3.412443399E-1,7.147117704E-2
4.686234479E0,9.524909258E-1,-3.314704895E-1,7.024945319E-2
4.688645469E0,9.170607328E-1,-3.216966689E-1,6.963858753E-2
4.691056407E0,8.834632039E-1,-3.082576394E-1,6.841685623E-2
4.693467344E0,8.498656154E-1,-2.948186100E-1,6.841685623E-2
4.695878282E0,8.144354820E-1,-2.795470059E-1,6.780599058E-2
4.698289219E0,7.808378935E-1,-2.630536556E-1,6.841685623E-2
4.700700157E0,7.466294765E-1,-2.447277009E-1,6.841685623E-2
4.703111094E0,7.130318880E-1,-2.239582986E-1,6.719512492E-2
4.705522032E0,6.800451875E-1,-2.037997693E-1,6.658425927E-2
4.707932969E0,6.464476585E-1,-1.824194938E-1,6.658425927E-2
4.710343959E0,6.134609580E-1,-1.610392332E-1,6.597339362E-2
4.712754896E0,5.804742575E-1,-1.378263682E-1,6.475166976E-2
4.715165834E0,5.456549525E-1,-1.127809063E-1,6.597339362E-2
4.717576771E0,5.132791400E-1,-8.773545176E-2,6.536252797E-2
4.719987709E0,4.809032977E-1,-6.268999726E-2,6.475166976E-2
4.722398646E0,4.473057389E-1,-3.642281145E-2,6.536252797E-2
4.724809584E0,4.155407548E-1,-1.137735695E-2,6.475166976E-2
4.727220573E0,3.837758005E-1,1.550069358E-2,6.414080411E-2
4.729631511E0,3.520108163E-1,4.360047355E-2,6.475166976E-2
4.732042448E0,3.208567202E-1,6.925679743E-2,6.414080411E-2
4.734453386E0,2.878700197E-1,9.613484144E-2,6.291907281E-2
4.736864323E0,2.567159235E-1,1.236237586E-1,6.230820715E-2
4.739275261E0,2.267835438E-1,1.486692131E-1,6.291907281E-2
4.741686198E0,1.962403059E-1,1.737146676E-1,6.169734150E-2
4.744097188E0,1.656970680E-1,1.993709952E-1,6.108647957E-2
4.746508125E0,1.363755614E-1,2.244164497E-1,6.230820715E-2
4.748919063E0,1.064431891E-1,2.494619042E-1,6.108647957E-2
4.751330000E0,7.651081681E-2,2.720639110E-1,6.108647957E-2
4.753740938E0,4.780016840E-2,2.952767611E-1,6.108647957E-2
4.756151875E0,1.847865991E-2,3.178787529E-1,6.047561392E-2
4.758562865E0,-1.145371422E-2,3.386481702E-1,6.169734150E-2
4.760973802E0,-3.955349326E-2,3.588066995E-1,5.986474827E-2
4.763384740E0,-6.704241037E-2,3.771326542E-1,5.925388262E-2
4.765795677E0,-9.575305134E-2,3.942368627E-1,5.925388262E-2
4.768206615E0,-1.232419685E-1,4.113410711E-1,5.986474827E-2
4.770617552E0,-1.513417512E-1,4.260018170E-1,5.925388262E-2
4.773028490E0,-1.782197952E-1,4.394408464E-1,5.803215504E-2
4.775439427E0,-2.057087123E-1,4.522690177E-1,5.925388262E-2
4.777850417E0,-2.307541668E-1,4.626537263E-1,5.803215504E-2
4.780261354E0,-2.576322258E-1,4.712058306E-1,5.803215504E-2
4.782672292E0,-2.832885385E-1,4.785361886E-1,5.925388262E-2
4.785083229E0,-3.089448512E-1,4.852557182E-1,5.864302069E-2
4.787494167E0,-3.352120519E-1,4.895317554E-1,5.803215504E-2
4.789905104E0,-3.602575064E-1,4.925860763E-1,5.864302069E-2
4.792316042E0,-3.828594983E-1,4.938078225E-1,5.742128938E-2
4.794727032E0,-4.079049528E-1,4.913643599E-1,5.864302069E-2
4.797137969E0,-4.323395491E-1,4.901426136E-1,5.864302069E-2
4.799548907E0,-4.567741454E-1,4.858665764E-1,5.864302069E-2
4.801959844E0,-4.787652791E-1,4.797579348E-1,5.803215504E-2
4.804370782E0,-5.031998754E-1,4.730384052E-1,5.803215504E-2
4.806781719E0,-5.258018374E-1,4.638754427E-1,5.864302069E-2
4.809192657E0,-5.477929711E-1,4.528798759E-1,5.925388262E-2
4.811603594E0,-5.710058808E-1,4.394408464E-1,5.864302069E-2
4.814014584E0,-5.923861265E-1,4.253909588E-1,5.925388262E-2
4.816425521E0,-6.131555438E-1,4.107302129E-1,5.925388262E-2
4.818836459E0,-6.333140731E-1,3.936260045E-1,5.803215504E-2
4.821247396E0,-6.528617144E-1,3.753000498E-1,5.925388262E-2
4.823658334E0,-6.736311316E-1,3.545306325E-1,5.864302069E-2
4.826069271E0,-6.937896609E-1,3.325395286E-1,5.864302069E-2
4.828480209E0,-7.127264738E-1,3.105483949E-1,5.864302069E-2
4.830891198E0,-7.328850031E-1,2.861137986E-1,5.925388262E-2
4.833302136E0,-7.506000996E-1,2.616792023E-1,5.986474827E-2
4.835713073E0,-7.701478004E-1,2.360228747E-1,6.047561392E-2
4.838124011E0,-7.884737253E-1,2.085339576E-1,6.108647957E-2
4.840534948E0,-8.043562174E-1,1.816559136E-1,6.230820715E-2
4.842945886E0,-8.214604259E-1,1.523344070E-1,6.169734150E-2
4.845356823E0,-8.379537463E-1,1.242346242E-1,6.169734150E-2
4.847767813E0,-8.550579548E-1,9.491311759E-2,6.414080411E-2
