"Time (s)","Gyroscope x (rad/s)","Gyroscope y (rad/s)","Gyroscope z (rad/s)"
5.785204000E-2,-3.352120519E-2,-1.145371469E-3,3.588830587E-3
6.026308200E-2,-2.985601686E-2,3.130682046E-3,7.254019380E-3
6.267407100E-2,-2.680169232E-2,5.574141163E-3,9.086613543E-3
6.508511300E-2,-2.252563834E-2,1.046105940E-2,1.091920771E-2
6.749610200E-2,-1.947131567E-2,1.229365356E-2,1.458439697E-2
6.990714400E-2,-1.519526169E-2,1.595884189E-2,1.702785492E-2
7.231818600E-2,-1.214093715E-2,1.840230078E-2,1.886045001E-2
7.472917500E-2,-1.030834299E-2,1.962403022E-2,2.252563834E-2
7.714021700E-2,-6.032289471E-3,2.328922041E-2,2.557996288E-2
7.955125900E-2,-4.199695308E-3,2.512181364E-2,2.802342176E-2
8.196224800E-2,-1.756236190E-3,2.634354308E-2,2.924515121E-2
8.437329000E-2,7.635809743E-5,2.695440874E-2,3.291033953E-2
8.678427900E-2,1.908952487E-3,2.817613818E-2,3.413207084E-2
8.919532100E-2,4.963276442E-3,2.878700197E-2,3.413207084E-2
9.160631100E-2,7.406735327E-3,2.817613818E-2,3.657552972E-2
9.401735200E-2,9.239329956E-3,2.878700197E-2,3.718639165E-2
9.642839400E-2,8.628465235E-3,2.756527252E-2,3.718639165E-2
9.883938400E-2,9.239329956E-3,2.573267929E-2,3.657552972E-2
1.012504250E-1,6.795870606E-3,2.451094985E-2,3.535379842E-2
1.036614150E-1,7.406735327E-3,2.206749097E-2,3.474293277E-2
1.060724570E-1,5.574141163E-3,1.962403022E-2,3.413207084E-2
1.084834980E-1,3.130682046E-3,1.595884189E-2,3.229947388E-2
1.108944880E-1,2.519817324E-3,1.168278884E-2,3.168861195E-2
1.133055290E-1,6.872228696E-4,7.406735327E-3,3.046688065E-2
1.157165190E-1,-1.145371469E-3,2.519817324E-3,2.985601686E-2
1.181275610E-1,-2.977965865E-3,-2.977965865E-3,2.680169232E-2
1.205386020E-1,-4.199695308E-3,-7.254019380E-3,2.496909723E-2
1.229495920E-1,-4.199695308E-3,-1.091920771E-2,2.313650399E-2
1.253606340E-1,-4.199695308E-3,-1.641699113E-2,2.191477455E-2
1.277716230E-1,-3.588830587E-3,-2.069304511E-2,2.008217946E-2
1.301826650E-1,-2.367100911E-3,-2.619082667E-2,1.763872057E-2
1.325937070E-1,-5.345066893E-4,-2.863428742E-2,1.702785492E-2
1.350046960E-1,-1.145371469E-3,-3.474293277E-2,1.702785492E-2
1.374157380E-1,-5.345066893E-4,-3.779725730E-2,1.763872057E-2
1.398267270E-1,1.908952487E-3,-4.207331315E-2,1.763872057E-2
1.422377690E-1,3.130682046E-3,-4.573849961E-2,1.886045001E-2
1.446487590E-1,1.908952487E-3,-4.940368980E-2,2.069304511E-2
1.470598000E-1,3.741546767E-3,-5.184714869E-2,2.252563834E-2
1.494708420E-1,7.406735327E-3,-5.551233515E-2,2.435823344E-2
1.518818320E-1,1.046105940E-2,-5.612320080E-2,2.435823344E-2
1.542928730E-1,1.473711245E-2,-5.673406646E-2,2.435823344E-2
1.567038630E-1,1.718057133E-2,-5.917752534E-2,2.496909723E-2
1.591149040E-1,2.145662531E-2,-5.917752534E-2,2.435823344E-2
1.615259460E-1,2.451094985E-2,-5.856665969E-2,2.313650399E-2
1.639369360E-1,2.939786762E-2,-5.612320080E-2,2.191477455E-2
1.663479770E-1,3.306305781E-2,-5.367974192E-2,2.008217946E-2
1.687589670E-1,3.917170316E-2,-5.062541738E-2,1.763872057E-2
1.711700090E-1,4.283689335E-2,-4.696023092E-2,1.580612548E-2
1.735810500E-1,4.711294547E-2,-4.146244749E-2,1.336266659E-2
1.759920400E-1,5.138900131E-2,-3.657552972E-2,1.030834299E-2
1.784030820E-1,5.505418777E-2,-3.107774630E-2,7.864884101E-3
1.808140710E-1,5.749764666E-2,-2.680169232E-2,4.810560029E-3
1.832251130E-1,5.994110554E-2,-1.947131567E-2,2.977965865E-3
1.856361540E-1,6.055197120E-2,-1.458439697E-2,-7.635809743E-5
1.880471440E-1,6.482802331E-2,-6.643154658E-3,-3.741546767E-3
1.904581860E-1,6.543888897E-2,6.872228696E-4,-6.795870606E-3
1.928691750E-1,6.482802331E-2,6.795870606E-3,-9.850194678E-3
1.952802170E-1,6.666062027E-2,1.290451828E-2,-1.168278884E-2
1.976912070E-1,6.604975462E-2,2.023489587E-2,-1.473711245E-2
2.001022480E-1,6.482802331E-2,2.695440874E-2,-1.718057133E-2
2.025132900E-1,6.543888897E-2,3.306305781E-2,-2.023489587E-2
2.049242790E-1,6.177370250E-2,4.100430012E-2,-2.328922041E-2
2.073353210E-1,5.933023989E-2,4.711294547E-2,-2.512181364E-2
2.097463110E-1,5.749764666E-2,5.261072889E-2,-2.634354308E-2
2.121573520E-1,5.199986324E-2,5.688678101E-2,-2.573267929E-2
2.145683940E-1,4.589121789E-2,6.055197120E-2,-2.573267929E-2
2.169793840E-1,3.978256881E-2,6.543888897E-2,-2.695440874E-2
2.193904250E-1,3.123046272E-2,6.666062027E-2,-2.695440874E-2
2.218014150E-1,2.451094985E-2,7.032580674E-2,-2.573267929E-2
2.242124570E-1,1.779143699E-2,7.093667239E-2,-2.512181364E-2
2.266234980E-1,1.168278884E-2,7.215840369E-2,-2.390008420E-2
2.290344880E-1,3.130682046E-3,7.460185885E-2,-2.390008420E-2
2.314455290E-1,-2.367100911E-3,7.460185885E-2,-2.451094985E-2
2.338565190E-1,-8.475748822E-3,7.338013500E-2,-2.573267929E-2
2.362675610E-1,-1.336266659E-2,7.276926935E-2,-2.939786762E-2
2.386786020E-1,-2.191477455E-2,7.215840369E-2,-3.184132650E-2
2.410895920E-1,-2.374736778E-2,7.032580674E-2,-3.245219216E-2
2.435006340E-1,-2.924515121E-2,6.788235158E-2,-3.672824427E-2
2.459116230E-1,-3.291033953E-2,6.543888897E-2,-3.794997558E-2
2.483226650E-1,-3.657552972E-2,6.238456443E-2,-3.978256881E-2
2.507337070E-1,-3.657552972E-2,5.933023989E-2,-4.039343446E-2
2.531446960E-1,-3.962985426E-2,5.505418777E-2,-4.161516204E-2
2.555557380E-1,-4.207331315E-2,5.261072889E-2,-4.161516204E-2
2.579667270E-1,-4.268417507E-2,4.833467677E-2,-4.039343446E-2
2.603777690E-1,-4.329504073E-2,4.405862093E-2,-4.039343446E-2
2.627887590E-1,-4.268417507E-2,3.856083751E-2,-3.917170316E-2
2.651998000E-1,-4.146244749E-2,3.489565104E-2,-4.039343446E-2
2.676108420E-1,-4.024071619E-2,3.123046272E-2,-4.100430012E-2
2.700218320E-1,-4.024071619E-2,2.695440874E-2,-3.978256881E-2
2.724328730E-1,-3.596466407E-2,2.206749097E-2,-4.039343446E-2
2.748438630E-1,-3.413207084E-2,1.901316643E-2,-4.100430012E-2
2.772549040E-1,-3.168861195E-2,1.595884189E-2,-3.917170316E-2
2.796659460E-1,-2.863428742E-2,1.351538301E-2,-3.917170316E-2
2.820769360E-1,-2.557996288E-2,1.046105940E-2,-3.856083751E-2
2.844879770E-1,-2.313650399E-2,6.795870606E-3,-3.917170316E-2
2.868989670E-1,-2.008217946E-2,2.519817324E-3,-3.856083751E-2
2.893100090E-1,-1.580612548E-2,1.298087649E-3,-3.672824427E-2
2.917209980E-1,-1.275180187E-2,-2.977965865E-3,-3.489565104E-2
2.941320400E-1,-9.697478265E-3,-6.032289471E-3,-3.367391974E-2
2.965430820E-1,-7.254019380E-3,-8.475748822E-3,-3.306305781E-2
2.989540710E-1,-2.977965865E-3,-1.275180187E-2,-3.061959706E-2
3.013651130E-1,-5.345066893E-4,-1.519526169E-2,-2.817613818E-2
3.037761540E-1,2.519817324E-3,-1.824958436E-2,-2.634354308E-2
3.061871440E-1,3.130682046E-3,-2.130390890E-2,-2.512181364E-2
3.085981860E-1,5.574141163E-3,-2.496909723E-2,-2.206749097E-2
3.110091750E-1,5.574141163E-3,-2.802342176E-2,-2.023489587E-2
3.134202170E-1,6.795870606E-3,-3.046688065E-2,-1.840230078E-2
3.158312590E-1,7.406735327E-3,-3.229947388E-2,-1.351538301E-2
3.182422480E-1,4.963276442E-3,-3.657552972E-2,-8.628465235E-3
3.206532900E-1,3.130682046E-3,-3.962985426E-2,-7.406735327E-3
3.230642790E-1,1.298087649E-3,-4.207331315E-2,-1.908952487E-3
3.254753210E-1,-2.977965865E-3,-4.634936526E-2,2.977965865E-3
3.278863110E-1,-4.199695308E-3,-4.818195850E-2,7.254019380E-3
3.302973520E-1,-5.421424750E-3,-4.879282415E-2,1.091920771E-2
3.327083940E-1,-8.475748822E-3,-5.123628303E-2,1.458439697E-2
3.351193840E-1,-1.153007243E-2,-5.123628303E-2,1.641699113E-2
3.375304250E-1,-1.153007243E-2,-5.245801434E-2,1.886045001E-2
3.399414150E-1,-1.458439697E-2,-5.429060757E-2,2.130390890E-2
3.423524570E-1,-1.641699113E-2,-5.429060757E-2,2.252563834E-2
3.447634460E-1,-1.947131567E-2,-5.306887627E-2,2.313650399E-2
3.471744880E-1,-2.130390890E-2,-5.306887627E-2,2.496909723E-2
3.495855290E-1,-2.252563834E-2,-5.245801434E-2,2.496909723E-2
3.519965190E-1,-2.374736778E-2,-5.184714869E-2,2.496909723E-2
3.544075610E-1,-2.619082667E-2,-5.062541738E-2,2.680169232E-2
3.568185500E-1,-2.680169232E-2,-4.940368980E-2,2.802342176E-2
3.592295920E-1,-2.802342176E-2,-4.696023092E-2,2.985601686E-2
3.616406340E-1,-2.863428742E-2,-4.573849961E-2,3.107774630E-2
3.640516230E-1,-3.107774630E-2,-4.451677203E-2,3.229947388E-2
3.664626650E-1,-3.107774630E-2,-4.207331315E-2,3.413207084E-2
3.688736540E-1,-3.229947388E-2,-4.085158184E-2,3.535379842E-2
3.712846960E-1,-3.046688065E-2,-3.901898861E-2,3.657552972E-2
3.736957380E-1,-3.046688065E-2,-3.718639165E-2,3.901898861E-2
3.761067270E-1,-2.924515121E-2,-3.474293277E-2,4.207331315E-2
3.785177690E-1,-2.496909723E-2,-3.229947388E-2,4.451677203E-2
3.809287590E-1,-2.008217946E-2,-2.863428742E-2,4.757109284E-2
3.833398000E-1,-1.580612548E-2,-2.680169232E-2,5.245801434E-2
3.857508420E-1,-1.030834299E-2,-2.374736778E-2,5.306887627E-2
3.881618320E-1,-6.032289471E-3,-2.008217946E-2,5.673406646E-2
3.905728730E-1,-5.345066893E-4,-1.763872057E-2,5.917752534E-2
3.929838630E-1,4.963276442E-3,-1.519526169E-2,5.978839099E-2
3.953949040E-1,1.107192412E-2,-1.153007243E-2,6.101011857E-2
3.978058940E-1,1.534797717E-2,-8.475748822E-3,6.284271181E-2
4.002169360E-1,2.084576152E-2,-6.032289471E-3,6.345357746E-2
4.026279770E-1,2.695440874E-2,-3.588830587E-3,6.406444311E-2
4.050389670E-1,3.184132650E-2,7.635809743E-5,6.467530876E-2
4.074500090E-1,3.611737862E-2,1.908952487E-3,6.284271181E-2
4.098609980E-1,4.161516204E-2,6.185005885E-3,6.223184988E-2
4.122720400E-1,4.466948658E-2,8.628465235E-3,5.978839099E-2
4.146830820E-1,4.772381112E-2,1.229365356E-2,5.612320080E-2
4.170940710E-1,4.955640435E-2,1.351538301E-2,5.306887627E-2
4.195051130E-1,5.261072889E-2,1.595884189E-2,4.879282415E-2
4.219161020E-1,5.322159454E-2,1.901316643E-2,4.512763396E-2
4.243271440E-1,5.505418777E-2,2.023489587E-2,3.962985426E-2
4.267381860E-1,5.627591908E-2,2.206749097E-2,3.413207084E-2
4.291491750E-1,5.566505343E-2,2.451094985E-2,2.924515121E-2
4.315602170E-1,5.444332212E-2,2.573267929E-2,2.374736778E-2
4.339712070E-1,5.261072889E-2,2.695440874E-2,1.824958436E-2
4.363822480E-1,5.138900131E-2,2.756527252E-2,1.214093715E-2
4.387932380E-1,4.772381112E-2,2.634354308E-2,6.032289471E-3
4.412042790E-1,4.222602770E-2,2.695440874E-2,5.345066893E-4
4.436153210E-1,3.856083751E-2,2.756527252E-2,-5.574141163E-3
4.460263110E-1,3.489565104E-2,2.634354308E-2,-1.046105940E-2
4.484373520E-1,2.756527252E-2,2.512181364E-2,-1.412624773E-2
4.508483420E-1,2.328922041E-2,2.512181364E-2,-1.840230078E-2
4.532593840E-1,1.595884189E-2,2.328922041E-2,-2.328922041E-2
4.556704250E-1,9.239329956E-3,2.206749097E-2,-2.634354308E-2
4.580814150E-1,4.352411721E-3,2.145662531E-2,-2.878700197E-2
4.604924570E-1,-1.145371469E-3,1.901316643E-2,-3.184132650E-2
4.629034460E-1,-8.475748822E-3,1.718057133E-2,-3.611737862E-2
4.653144880E-1,-1.336266659E-2,1.718057133E-2,-3.733910993E-2
4.677254770E-1,-2.008217946E-2,1.656970754E-2,-3.794997558E-2
4.701365190E-1,-2.557996288E-2,1.168278884E-2,-4.039343446E-2
4.725475610E-1,-2.985601686E-2,1.107192412E-2,-4.466948658E-2
4.749585500E-1,-3.413207084E-2,1.046105940E-2,-4.650207981E-2
4.773695920E-1,-3.779725730E-2,8.628465235E-3,-4.894553870E-2
4.797805820E-1,-4.207331315E-2,6.185005885E-3,-5.077813566E-2
4.821916230E-1,-4.390590638E-2,5.574141163E-3,-5.138900131E-2
4.846026650E-1,-4.573849961E-2,5.574141163E-3,-5.322159454E-2
4.870136540E-1,-4.757109284E-2,4.963276442E-3,-5.505418777E-2
4.894246960E-1,-4.573849961E-2,3.741546767E-3,-5.566505343E-2
4.918356860E-1,-4.634936526E-2,2.519817324E-3,-5.688678101E-2
4.942467270E-1,-4.634936526E-2,3.741546767E-3,-5.810851231E-2
4.966577690E-1,-4.390590638E-2,3.741546767E-3,-5.749764666E-2
4.990687590E-1,-4.329504073E-2,3.741546767E-3,-5.749764666E-2
5.014798000E-1,-4.085158184E-2,4.352411721E-3,-5.933023989E-2
5.038907900E-1,-3.840812296E-2,3.741546767E-3,-5.994110554E-2
5.063018320E-1,-3.474293277E-2,4.352411721E-3,-6.238456443E-2
5.087128210E-1,-3.168861195E-2,3.130682046E-3,-6.299543381E-2
5.111238630E-1,-2.680169232E-2,4.352411721E-3,-6.299543381E-2
5.135349040E-1,-2.130390890E-2,4.963276442E-3,-6.299543381E-2
5.159458940E-1,-1.641699113E-2,5.574141163E-3,-6.238456443E-2
5.183569360E-1,-1.153007243E-2,5.574141163E-3,-6.177370250E-2
5.207679250E-1,-2.977965865E-3,6.185005885E-3,-5.994110554E-2
5.231789670E-1,-5.345066893E-4,6.185005885E-3,-5.627591908E-2
5.255900090E-1,5.574141163E-3,6.795870606E-3,-5.505418777E-2
5.280009980E-1,1.046105940E-2,6.795870606E-3,-5.138900131E-2
5.304120400E-1,1.473711245E-2,7.406735327E-3,-4.772381112E-2
5.328230290E-1,1.718057133E-2,8.017600514E-3,-4.528035223E-2
5.352340710E-1,2.267835476E-2,9.239329956E-3,-4.161516204E-2
5.376450610E-1,2.695440874E-2,8.628465235E-3,-3.794997558E-2
5.400561020E-1,3.000873141E-2,9.239329956E-3,-3.367391974E-2
5.424671440E-1,3.245219216E-2,1.229365356E-2,-2.939786762E-2
5.448781340E-1,3.733910993E-2,1.351538301E-2,-2.512181364E-2
5.472891750E-1,3.794997558E-2,1.290451828E-2,-2.145662531E-2
5.497001650E-1,4.100430012E-2,1.473711245E-2,-1.962403022E-2
5.521112070E-1,4.344775900E-2,1.718057133E-2,-1.595884189E-2
5.545222480E-1,4.405862093E-2,1.840230078E-2,-1.107192412E-2
5.569332380E-1,4.528035223E-2,1.962403022E-2,-1.107192412E-2
5.593442790E-1,4.528035223E-2,2.206749097E-2,-9.850194678E-3
5.617552690E-1,4.466948658E-2,2.390008420E-2,-6.795870606E-3
5.641663110E-1,4.405862093E-2,2.573267929E-2,-4.963276442E-3
5.665773520E-1,4.405862093E-2,2.756527252E-2,-4.963276442E-3
5.689883420E-1,4.161516204E-2,2.939786762E-2,-2.519817324E-3
5.713993840E-1,3.794997558E-2,2.817613818E-2,-2.519817324E-3
5.738103730E-1,3.733910993E-2,2.939786762E-2,-1.298087649E-3
5.762214150E-1,3.245219216E-2,3.000873141E-2,-7.635809743E-5
5.786324040E-1,2.878700197E-2,3.061959706E-2,5.345066893E-4
5.810434460E-1,2.634354308E-2,3.184132650E-2,2.977965865E-3
5.834544880E-1,2.145662531E-2,3.061959706E-2,4.199695308E-3
5.858654770E-1,1.656970754E-2,2.878700197E-2,6.032289471E-3
5.882765190E-1,1.351538301E-2,3.000873141E-2,7.864884101E-3
5.906875090E-1,9.850194678E-3,2.878700197E-2,1.030834299E-2
5.930985500E-1,6.795870606E-3,2.756527252E-2,1.153007243E-2
5.955095920E-1,4.963276442E-3,2.634354308E-2,1.275180187E-2
5.979205820E-1,3.741546767E-3,2.634354308E-2,1.275180187E-2
6.003316230E-1,7.635809743E-5,2.206749097E-2,1.275180187E-2
6.027426130E-1,-1.756236190E-3,2.206749097E-2,1.275180187E-2
6.051536540E-1,-2.977965865E-3,2.023489587E-2,1.336266659E-2
6.075646960E-1,-6.032289471E-3,1.840230078E-2,1.275180187E-2
6.099756860E-1,-8.475748822E-3,1.595884189E-2,1.275180187E-2
6.123867270E-1,-1.030834299E-2,1.351538301E-2,1.336266659E-2
6.147977170E-1,-1.091920771E-2,1.168278884E-2,1.336266659E-2
6.172087590E-1,-1.030834299E-2,9.850194678E-3,1.458439697E-2
6.196197480E-1,-1.214093715E-2,7.406735327E-3,1.519526169E-2
6.220307900E-1,-1.091920771E-2,5.574141163E-3,1.641699113E-2
6.244418320E-1,-9.086613543E-3,3.130682046E-3,1.458439697E-2
6.268528210E-1,-7.864884101E-3,1.298087649E-3,1.519526169E-2
6.292638630E-1,-6.643154658E-3,-5.345066893E-4,1.519526169E-2
6.316748520E-1,-7.254019380E-3,-4.199695308E-3,1.397353224E-2
6.340858940E-1,-4.810560029E-3,-4.810560029E-3,1.397353224E-2
6.364968840E-1,-4.810560029E-3,-6.032289471E-3,1.336266659E-2
6.389079250E-1,-1.756236190E-3,-6.643154658E-3,1.214093715E-2
6.413189670E-1,-2.367100911E-3,-9.697478265E-3,1.275180187E-2
6.437299570E-1,7.635809743E-5,-1.091920771E-2,1.214093715E-2
6.461409980E-1,6.872228696E-4,-1.214093715E-2,1.153007243E-2
6.485519880E-1,6.872228696E-4,-1.336266659E-2,1.214093715E-2
6.509630290E-1,6.872228696E-4,-1.519526169E-2,1.153007243E-2
6.533740710E-1,7.635809743E-5,-1.641699113E-2,1.214093715E-2
6.557850610E-1,-5.345066893E-4,-1.702785492E-2,1.214093715E-2
6.581961020E-1,-5.345066893E-4,-1.763872057E-2,1.397353224E-2
6.606070920E-1,-1.756236190E-3,-1.886045001E-2,1.397353224E-2
6.630181340E-1,-3.588830587E-3,-2.069304511E-2,1.397353224E-2
6.654291750E-1,-5.421424750E-3,-2.130390890E-2,1.519526169E-2
6.678401650E-1,-6.032289471E-3,-2.191477455E-2,1.397353224E-2
6.702512070E-1,-6.032289471E-3,-2.252563834E-2,1.336266659E-2
6.726621960E-1,-7.864884101E-3,-2.313650399E-2,1.397353224E-2
6.750732380E-1,-1.091920771E-2,-2.496909723E-2,1.153007243E-2
6.774842270E-1,-1.091920771E-2,-2.374736778E-2,1.030834299E-2
6.798952690E-1,-1.336266659E-2,-2.435823344E-2,8.475748822E-3
6.823063110E-1,-1.336266659E-2,-2.435823344E-2,6.032289471E-3
6.847173000E-1,-1.580612548E-2,-2.374736778E-2,6.032289471E-3
6.871283420E-1,-1.580612548E-2,-2.496909723E-2,4.810560029E-3
6.895393840E-1,-1.886045001E-2,-2.619082667E-2,2.977965865E-3
6.919503730E-1,-2.130390890E-2,-2.557996288E-2,2.367100911E-3
6.943614150E-1,-2.374736778E-2,-2.680169232E-2,5.345066893E-4
6.967724040E-1,-2.374736778E-2,-2.741255611E-2,-6.872228696E-4
6.991834460E-1,-2.435823344E-2,-2.741255611E-2,-1.298087649E-3
7.015944360E-1,-2.435823344E-2,-2.741255611E-2,-4.352411721E-3
7.040054770E-1,-2.557996288E-2,-2.741255611E-2,-3.741546767E-3
7.064165190E-1,-2.619082667E-2,-2.680169232E-2,-3.741546767E-3
7.088275090E-1,-2.680169232E-2,-2.802342176E-2,-2.519817324E-3
7.112385500E-1,-2.802342176E-2,-2.863428742E-2,-6.872228696E-4
7.136495400E-1,-2.680169232E-2,-2.924515121E-2,1.756236190E-3
7.160605820E-1,-2.802342176E-2,-3.046688065E-2,4.199695308E-3
7.184715710E-1,-2.863428742E-2,-3.229947388E-2,6.643154658E-3
7.208826130E-1,-2.741255611E-2,-3.352120519E-2,7.254019380E-3
7.232936540E-1,-2.313650399E-2,-3.535379842E-2,1.030834299E-2
7.257046440E-1,-1.702785492E-2,-3.718639165E-2,1.275180187E-2
7.281156860E-1,-1.153007243E-2,-3.718639165E-2,1.641699113E-2
7.305266750E-1,-6.643154658E-3,-3.840812296E-2,2.008217946E-2
7.329377170E-1,-4.810560029E-3,-4.207331315E-2,2.313650399E-2
7.353487590E-1,-1.145371469E-3,-4.329504073E-2,2.557996288E-2
7.377597480E-1,6.872228696E-4,-4.512763396E-2,3.107774630E-2
7.401707900E-1,1.908952487E-3,-4.818195850E-2,3.413207084E-2
7.425817790E-1,4.963276442E-3,-5.001455545E-2,3.901898861E-2
7.449928210E-1,9.239329956E-3,-5.001455545E-2,4.329504073E-2
7.474038110E-1,1.290451828E-2,-5.245801434E-2,4.573849961E-2
7.498148520E-1,1.595884189E-2,-5.184714869E-2,4.940368980E-2
7.522258940E-1,1.962403022E-2,-5.306887627E-2,5.184714869E-2
7.546368840E-1,2.451094985E-2,-5.367974192E-2,5.551233515E-2
7.570479250E-1,2.451094985E-2,-5.490147322E-2,5.673406646E-2
7.594589150E-1,2.512181364E-2,-5.673406646E-2,5.734493211E-2
7.618699570E-1,2.634354308E-2,-5.734493211E-2,5.917752534E-2
7.642809980E-1,2.756527252E-2,-5.551233515E-2,6.101011857E-2
7.666919880E-1,2.939786762E-2,-5.612320080E-2,6.101011857E-2
7.691030290E-1,3.061959706E-2,-5.551233515E-2,6.101011857E-2
7.715140190E-1,3.061959706E-2,-5.367974192E-2,6.039925665E-2
7.739250610E-1,3.184132650E-2,-5.184714869E-2,5.856665969E-2
7.763360500E-1,3.184132650E-2,-5.001455545E-2,5.734493211E-2
7.787470920E-1,3.061959706E-2,-4.879282415E-2,5.367974192E-2
7.811581340E-1,3.061959706E-2,-4.634936526E-2,5.001455545E-2
7.835691230E-1,2.878700197E-2,-4.268417507E-2,4.696023092E-2
7.859801650E-1,2.817613818E-2,-4.024071619E-2,4.512763396E-2
7.883911540E-1,2.512181364E-2,-3.718639165E-2,4.146244749E-2
7.908021960E-1,2.206749097E-2,-3.535379842E-2,3.840812296E-2
7.932132380E-1,1.962403022E-2,-2.985601686E-2,3.535379842E-2
7.956242270E-1,1.595884189E-2,-2.619082667E-2,3.107774630E-2
7.980352690E-1,1.351538301E-2,-2.130390890E-2,2.802342176E-2
8.004462590E-1,8.628465235E-3,-1.702785492E-2,2.496909723E-2
8.028573000E-1,3.741546767E-3,-1.275180187E-2,2.252563834E-2
8.052683420E-1,-1.756236190E-3,-6.643154658E-3,1.886045001E-2
8.076793320E-1,-5.421424750E-3,7.635809743E-5,1.519526169E-2
8.100903730E-1,-9.086613543E-3,5.574141163E-3,1.091920771E-2
8.125013630E-1,-1.702785492E-2,9.850194678E-3,6.643154658E-3
8.149124040E-1,-2.313650399E-2,1.595884189E-2,3.588830587E-3
8.173233940E-1,-2.802342176E-2,2.390008420E-2,5.345066893E-4
8.197344360E-1,-3.413207084E-2,3.000873141E-2,-6.872228696E-4
8.221454770E-1,-3.840812296E-2,3.611737862E-2,-3.130682046E-3
8.245564670E-1,-4.390590638E-2,4.222602770E-2,-3.741546767E-3
8.269675090E-1,-4.818195850E-2,4.894553870E-2,-6.795870606E-3
8.293784980E-1,-5.062541738E-2,5.444332212E-2,-9.239329956E-3
8.317895400E-1,-5.551233515E-2,5.871937796E-2,-9.850194678E-3
8.342005820E-1,-5.917752534E-2,6.421715766E-2,-1.229365356E-2
8.366115710E-1,-6.223184988E-2,6.910407543E-2,-1.656970754E-2
8.390226130E-1,-6.467530876E-2,7.338013500E-2,-2.023489587E-2
8.414336020E-1,-6.589704007E-2,7.521272451E-2,-2.267835476E-2
8.438446440E-1,-6.834049523E-2,7.948877662E-2,-2.512181364E-2
8.462556340E-1,-6.834049523E-2,7.948877662E-2,-2.695440874E-2
8.486666750E-1,-6.895136088E-2,8.132137358E-2,-2.817613818E-2
8.510777170E-1,-6.772962958E-2,8.315397054E-2,-3.000873141E-2
8.534887070E-1,-7.017309219E-2,8.132137358E-2,-3.061959706E-2
8.558997480E-1,-6.772962958E-2,8.009964228E-2,-3.061959706E-2
8.583107380E-1,-6.528617442E-2,7.887791097E-2,-2.878700197E-2
8.607217790E-1,-6.345357746E-2,7.460185885E-2,-2.695440874E-2
8.631328210E-1,-6.039925665E-2,7.154753804E-2,-2.756527252E-2
8.655438110E-1,-5.734493211E-2,6.666062027E-2,-2.695440874E-2
8.679548520E-1,-5.367974192E-2,6.055197120E-2,-2.512181364E-2
8.703658420E-1,-5.001455545E-2,5.444332212E-2,-2.206749097E-2
8.727768840E-1,-4.634936526E-2,4.772381112E-2,-2.084576152E-2
8.751879250E-1,-4.085158184E-2,4.161516204E-2,-2.023489587E-2
8.775989150E-1,-3.718639165E-2,3.428478539E-2,-1.779143699E-2
8.800099570E-1,-2.863428742E-2,2.634354308E-2,-1.534797717E-2
8.824209460E-1,-2.435823344E-2,1.840230078E-2,-1.168278884E-2
8.848319880E-1,-1.824958436E-2,9.239329956E-3,-9.850194678E-3
8.872429770E-1,-1.091920771E-2,1.298087649E-3,-7.406735327E-3
8.896540190E-1,-6.643154658E-3,-7.864884101E-3,-3.130682046E-3
8.920650610E-1,7.635809743E-5,-1.519526169E-2,-1.908952487E-3
8.944760500E-1,4.352411721E-3,-2.496909723E-2,1.145371469E-3
8.968870920E-1,8.628465235E-3,-3.413207084E-2,2.367100911E-3
8.992980820E-1,1.290451828E-2,-4.268417507E-2,5.421424750E-3
9.017091230E-1,1.656970754E-2,-4.879282415E-2,9.086613543E-3
9.041201650E-1,1.840230078E-2,-5.856665969E-2,1.275180187E-2
9.065311540E-1,2.023489587E-2,-6.650790572E-2,1.702785492E-2
9.089421960E-1,2.328922041E-2,-7.261654735E-2,1.947131567E-2
9.113531860E-1,2.206749097E-2,-7.994692773E-2,2.374736778E-2
9.137642270E-1,2.451094985E-2,-8.666644245E-2,2.863428742E-2
9.161752690E-1,2.634354308E-2,-9.094249457E-2,3.168861195E-2
9.185862590E-1,2.512181364E-2,-9.827287495E-2,3.535379842E-2
9.209973000E-1,2.695440874E-2,-1.019380614E-1,3.718639165E-2
9.234082900E-1,2.756527252E-2,-1.062141135E-1,4.024071619E-2
9.258193320E-1,2.817613818E-2,-1.086575761E-1,4.207331315E-2
9.282303210E-1,2.878700197E-2,-1.117118970E-1,4.390590638E-2
9.306413630E-1,2.756527252E-2,-1.117118970E-1,4.696023092E-2
9.330524040E-1,2.756527252E-2,-1.141553521E-1,4.879282415E-2
9.354633940E-1,2.878700197E-2,-1.141553521E-1,5.123628303E-2
9.378744360E-1,2.817613818E-2,-1.147662178E-1,5.245801434E-2
9.402854250E-1,2.878700197E-2,-1.141553521E-1,5.551233515E-2
9.426964670E-1,2.756527252E-2,-1.123227626E-1,5.734493211E-2
9.451075090E-1,2.756527252E-2,-1.104901657E-1,5.734493211E-2
9.475184980E-1,2.634354308E-2,-1.086575761E-1,5.917752534E-2
9.499295400E-1,2.451094985E-2,-1.062141135E-1,6.101011857E-2
9.523405290E-1,2.267835476E-2,-1.019380614E-1,6.101011857E-2
9.547515710E-1,2.206749097E-2,-9.521854669E-2,6.223184988E-2
9.571626130E-1,1.901316643E-2,-9.216422588E-2,6.345357746E-2
9.595736020E-1,2.023489587E-2,-8.666644245E-2,6.345357746E-2
9.619846440E-1,2.145662531E-2,-7.811433077E-2,6.467530876E-2
9.643956340E-1,1.840230078E-2,-7.261654735E-2,6.345357746E-2
9.668066750E-1,1.962403022E-2,-6.528617442E-2,6.223184988E-2
9.692176650E-1,1.840230078E-2,-5.734493211E-2,6.101011857E-2
9.716287070E-1,1.901316643E-2,-4.757109284E-2,5.856665969E-2
9.740397480E-1,1.962403022E-2,-3.840812296E-2,5.734493211E-2
9.764507380E-1,1.962403022E-2,-2.863428742E-2,5.367974192E-2
9.788617790E-1,2.206749097E-2,-1.886045001E-2,5.123628303E-2
9.812727690E-1,2.206749097E-2,-1.030834299E-2,4.757109284E-2
9.836838110E-1,2.145662531E-2,7.635809743E-5,4.451677203E-2
9.860948520E-1,2.206749097E-2,9.239329956E-3,4.207331315E-2
9.885058420E-1,2.084576152E-2,1.901316643E-2,4.024071619E-2
9.909168840E-1,2.084576152E-2,3.061959706E-2,3.840812296E-2
9.933278730E-1,2.023489587E-2,4.161516204E-2,3.474293277E-2
9.957389150E-1,2.084576152E-2,5.138900131E-2,3.046688065E-2
9.981499040E-1,1.962403022E-2,6.116283685E-2,2.741255611E-2
1.000560946E0,1.779143699E-2,7.032580674E-2,2.252563834E-2
1.002971988E0,1.595884189E-2,8.009964228E-2,1.886045001E-2
1.005382977E0,1.473711245E-2,8.926261961E-2,1.275180187E-2
1.007794019E0,1.168278884E-2,9.598212689E-2,7.254019380E-3
1.010205009E0,8.628465235E-3,1.039233729E-1,1.756236190E-3
1.012616050E0,8.017600514E-3,1.112537459E-1,-4.352411721E-3
1.015027092E0,6.185005885E-3,1.167515293E-1,-1.046105940E-2
1.017438082E0,5.574141163E-3,1.222493127E-1,-1.534797717E-2
1.019849123E0,3.741546767E-3,1.271362305E-1,-2.023489587E-2
1.022260113E0,3.130682046E-3,1.301905513E-1,-2.573267929E-2
1.024671154E0,-1.145371469E-3,1.320231557E-1,-3.184132650E-2
1.027082144E0,-2.977965865E-3,1.350774765E-1,-3.550651670E-2
1.029493186E0,-8.475748822E-3,1.350774765E-1,-3.917170316E-2
1.031904227E0,-1.214093715E-2,1.338557452E-1,-4.344775900E-2
1.034315217E0,-1.763872057E-2,1.320231557E-1,-4.405862093E-2
1.036726259E0,-2.130390890E-2,1.320231557E-1,-4.528035223E-2
1.039137248E0,-2.802342176E-2,1.265253723E-1,-4.466948658E-2
1.041548290E0,-3.107774630E-2,1.246927753E-1,-4.528035223E-2
1.043959332E0,-3.718639165E-2,1.185841262E-1,-4.528035223E-2
1.046370321E0,-4.268417507E-2,1.136972085E-1,-4.589121789E-2
1.048781363E0,-4.818195850E-2,1.069776937E-1,-4.711294547E-2
1.051192352E0,-5.306887627E-2,1.008690447E-1,-4.528035223E-2
1.053603394E0,-5.673406646E-2,9.231694043E-2,-4.466948658E-2
1.056014436E0,-5.856665969E-2,8.498656005E-2,-4.344775900E-2
1.058425425E0,-6.223184988E-2,7.582359016E-2,-4.161516204E-2
1.060836467E0,-6.345357746E-2,6.666062027E-2,-3.917170316E-2
1.063247457E0,-6.406444311E-2,5.994110554E-2,-3.856083751E-2
1.065658498E0,-6.772962958E-2,4.955640435E-2,-3.550651670E-2
1.068069488E0,-6.895136088E-2,4.100430012E-2,-3.184132650E-2
1.070480529E0,-7.017309219E-2,3.061959706E-2,-2.878700197E-2
1.072891571E0,-7.139482349E-2,2.267835476E-2,-2.328922041E-2
1.075302561E0,-7.078395784E-2,1.534797717E-2,-2.084576152E-2
1.077713602E0,-6.956222653E-2,6.795870606E-3,-1.718057133E-2
1.080124592E0,-6.834049523E-2,-1.756236190E-3,-1.290451828E-2
1.082535634E0,-6.406444311E-2,-7.254019380E-3,-9.239329956E-3
1.084946675E0,-6.101011857E-2,-1.336266659E-2,-5.574141163E-3
1.087357665E0,-5.856665969E-2,-2.008217946E-2,-3.741546767E-3
1.089768707E0,-5.429060757E-2,-2.313650399E-2,-3.130682046E-3
1.092179696E0,-4.879282415E-2,-2.741255611E-2,-7.635809743E-5
1.094590738E0,-4.696023092E-2,-3.046688065E-2,2.367100911E-3
1.097001779E0,-4.268417507E-2,-3.168861195E-2,3.588830587E-3
1.099412769E0,-3.596466407E-2,-3.352120519E-2,3.588830587E-3
1.101823811E0,-3.046688065E-2,-3.596466407E-2,5.421424750E-3
1.104234800E0,-2.435823344E-2,-3.535379842E-2,7.254019380E-3
1.106645842E0,-1.947131567E-2,-3.718639165E-2,8.475748822E-3
1.109056884E0,-1.214093715E-2,-3.657552972E-2,9.086613543E-3
1.111467873E0,-6.032289471E-3,-3.657552972E-2,9.086613543E-3
1.113878915E0,-1.756236190E-3,-3.596466407E-2,9.697478265E-3
1.116289904E0,3.741546767E-3,-3.413207084E-2,9.086613543E-3
1.118700946E0,8.628465235E-3,-3.291033953E-2,9.086613543E-3
1.121111936E0,1.351538301E-2,-3.291033953E-2,7.864884101E-3
1.123522977E0,1.718057133E-2,-3.046688065E-2,5.421424750E-3
1.125934019E0,2.084576152E-2,-3.107774630E-2,3.588830587E-3
1.128345009E0,2.573267929E-2,-2.741255611E-2,-6.872228696E-4
1.130756050E0,2.939786762E-2,-2.619082667E-2,-4.352411721E-3
1.133167040E0,3.367391974E-2,-2.619082667E-2,-8.628465235E-3
1.135578082E0,3.733910993E-2,-2.680169232E-2,-1.229365356E-2
1.137989071E0,4.039343446E-2,-2.557996288E-2,-1.473711245E-2
1.140400113E0,4.344775900E-2,-2.557996288E-2,-1.779143699E-2
1.142811154E0,4.528035223E-2,-2.680169232E-2,-2.023489587E-2
1.145222144E0,4.833467677E-2,-2.924515121E-2,-2.206749097E-2
1.147633186E0,5.016727000E-2,-3.107774630E-2,-2.390008420E-2
1.150044175E0,5.199986324E-2,-3.291033953E-2,-2.573267929E-2
1.152455217E0,5.383246019E-2,-3.657552972E-2,-2.634354308E-2
1.154866259E0,5.444332212E-2,-3.901898861E-2,-2.756527252E-2
1.157277248E0,5.627591908E-2,-4.268417507E-2,-2.878700197E-2
1.159688290E0,5.627591908E-2,-4.634936526E-2,-2.878700197E-2
1.162099279E0,5.566505343E-2,-4.940368980E-2,-3.123046272E-2
1.164510321E0,5.627591908E-2,-5.490147322E-2,-3.123046272E-2
1.166921311E0,5.383246019E-2,-5.856665969E-2,-3.061959706E-2
1.169332352E0,5.627591908E-2,-6.101011857E-2,-2.878700197E-2
1.171743394E0,5.566505343E-2,-6.467530876E-2,-2.939786762E-2
1.174154384E0,5.383246019E-2,-6.834049523E-2,-2.939786762E-2
1.176565425E0,5.383246019E-2,-6.956222653E-2,-3.061959706E-2
1.178976415E0,5.261072889E-2,-7.383827865E-2,-3.184132650E-2
1.181387457E0,5.138900131E-2,-7.567087561E-2,-3.245219216E-2
1.183798498E0,5.016727000E-2,-7.567087561E-2,-3.367391974E-2
1.186209488E0,4.711294547E-2,-7.689260691E-2,-3.428478539E-2
1.188620529E0,4.405862093E-2,-7.567087561E-2,-3.611737862E-2
1.191031519E0,4.466948658E-2,-7.506000996E-2,-3.917170316E-2
1.193442561E0,4.405862093E-2,-7.261654735E-2,-4.039343446E-2
1.195853602E0,4.283689335E-2,-6.956222653E-2,-4.344775900E-2
1.198264592E0,4.283689335E-2,-6.711876392E-2,-4.589121789E-2
1.200675634E0,4.466948658E-2,-6.101011857E-2,-4.955640435E-2
1.203086623E0,4.650207981E-2,-5.490147322E-2,-5.444332212E-2
1.205497665E0,4.589121789E-2,-5.062541738E-2,-5.749764666E-2
1.207908654E0,4.772381112E-2,-4.268417507E-2,-6.055197120E-2
1.210319696E0,4.711294547E-2,-3.657552972E-2,-6.299543381E-2
1.212730738E0,4.466948658E-2,-2.985601686E-2,-6.299543381E-2
1.215141727E0,4.344775900E-2,-2.252563834E-2,-6.299543381E-2
1.217552769E0,3.917170316E-2,-1.580612548E-2,-6.299543381E-2
1.219963759E0,3.672824427E-2,-8.475748822E-3,-6.238456443E-2
1.222374800E0,3.550651670E-2,7.635809743E-5,-6.238456443E-2
1.224785842E0,3.306305781E-2,9.239329956E-3,-6.116283685E-2
1.227196832E0,3.123046272E-2,1.840230078E-2,-6.238456443E-2
1.229607873E0,2.817613818E-2,2.695440874E-2,-6.238456443E-2
1.232018863E0,2.634354308E-2,3.489565104E-2,-6.482802331E-2
1.234429904E0,2.390008420E-2,4.283689335E-2,-6.543888897E-2
1.236840946E0,2.084576152E-2,5.199986324E-2,-6.971494108E-2
1.239251936E0,1.779143699E-2,6.055197120E-2,-7.154753804E-2
1.241662977E0,1.534797717E-2,6.788235158E-2,-7.399099320E-2
1.244073967E0,1.229365356E-2,7.643445581E-2,-7.582359016E-2
1.246485009E0,1.168278884E-2,8.376483619E-2,-7.643445581E-2
1.248896050E0,1.046105940E-2,8.987347782E-2,-7.765618712E-2
1.251307040E0,8.628465235E-3,9.353867173E-2,-7.948877662E-2
1.253718082E0,6.185005885E-3,9.842558950E-2,-8.009964228E-2
1.256129071E0,3.741546767E-3,1.020907760E-1,-7.948877662E-2
1.258540113E0,1.908952487E-3,1.045342386E-1,-7.887791097E-2
1.260951102E0,-5.345066893E-4,1.063668281E-1,-7.887791097E-2
1.263362144E0,-1.756236190E-3,1.057559624E-1,-7.582359016E-2
1.265773186E0,-4.810560029E-3,1.057559624E-1,-7.521272451E-2
1.268184175E0,-7.254019380E-3,1.063668281E-1,-7.276926935E-2
1.270595217E0,-1.091920771E-2,1.039233729E-1,-6.849320978E-2
1.273006207E0,-1.458439697E-2,1.008690447E-1,-6.421715766E-2
1.275417248E0,-1.641699113E-2,9.781472385E-2,-5.994110554E-2
1.277828290E0,-1.947131567E-2,9.353867173E-2,-5.505418777E-2
1.280239279E0,-2.191477455E-2,8.865175396E-2,-4.894553870E-2
1.282650321E0,-2.374736778E-2,8.437569439E-2,-4.283689335E-2
1.285061311E0,-2.619082667E-2,7.948877662E-2,-3.611737862E-2
1.287472352E0,-2.741255611E-2,7.399099320E-2,-2.756527252E-2
1.289883342E0,-2.863428742E-2,6.666062027E-2,-2.084576152E-2
1.292294384E0,-3.046688065E-2,6.055197120E-2,-1.473711245E-2
1.294705425E0,-3.107774630E-2,5.322159454E-2,-9.239329956E-3
1.297116415E0,-2.924515121E-2,4.650207981E-2,-3.130682046E-3
1.299527457E0,-2.680169232E-2,3.978256881E-2,-7.635809743E-5
1.301938446E0,-2.313650399E-2,3.306305781E-2,2.367100911E-3
1.304349488E0,-2.069304511E-2,2.451094985E-2,5.421424750E-3
1.306760529E0,-1.886045001E-2,1.656970754E-2,6.643154658E-3
1.309171519E0,-1.580612548E-2,8.628465235E-3,6.032289471E-3
1.311582561E0,-1.153007243E-2,6.872228696E-4,7.254019380E-3
1.313993550E0,-8.475748822E-3,-7.864884101E-3,7.254019380E-3
1.316404592E0,-5.421424750E-3,-1.580612548E-2,6.643154658E-3
1.318815634E0,-3.588830587E-3,-2.313650399E-2,8.475748822E-3
1.321226623E0,-1.756236190E-3,-3.229947388E-2,9.697478265E-3
1.323637665E0,1.908952487E-3,-4.085158184E-2,1.214093715E-2
1.326048654E0,3.130682046E-3,-5.001455545E-2,1.580612548E-2
1.328459696E0,6.185005885E-3,-5.734493211E-2,2.069304511E-2
1.330870686E0,8.628465235E-3,-6.589704007E-2,2.435823344E-2
1.333281727E0,9.850194678E-3,-7.383827865E-2,2.924515121E-2
1.335692769E0,1.107192412E-2,-7.994692773E-2,3.352120519E-2
1.338103759E0,1.290451828E-2,-8.727730811E-2,3.962985426E-2
1.340514800E0,1.351538301E-2,-9.277509153E-2,4.451677203E-2
1.342925790E0,1.351538301E-2,-9.888373315E-2,5.062541738E-2
1.345336832E0,1.656970754E-2,-1.013271958E-1,5.551233515E-2
1.347747873E0,1.656970754E-2,-1.056032479E-1,5.978839099E-2
1.350158863E0,1.718057133E-2,-1.074358448E-1,6.467530876E-2
1.352569904E0,1.779143699E-2,-1.117118970E-1,6.772962958E-2
1.354980894E0,1.901316643E-2,-1.135444939E-1,7.139482349E-2
1.357391936E0,1.962403022E-2,-1.141553521E-1,7.383827865E-2
1.359802925E0,1.962403022E-2,-1.141553521E-1,7.628174126E-2
1.362213967E0,2.084576152E-2,-1.129336283E-1,7.750347257E-2
1.364625009E0,1.779143699E-2,-1.135444939E-1,7.933606207E-2
1.367035998E0,1.779143699E-2,-1.123227626E-1,8.177952468E-2
1.369447040E0,1.779143699E-2,-1.086575761E-1,8.300124854E-2
1.371858082E0,1.718057133E-2,-1.043815166E-1,8.483384550E-2
1.374269071E0,1.534797717E-2,-1.001054645E-1,8.849903196E-2
1.376680113E0,1.351538301E-2,-9.582941234E-2,9.094249457E-2
1.379091102E0,1.229365356E-2,-9.033162892E-2,9.338594973E-2
1.381502144E0,1.290451828E-2,-8.300124854E-2,9.766200930E-2
1.383913134E0,1.168278884E-2,-7.628174126E-2,1.013271958E-1
1.386324175E0,8.628465235E-3,-6.956222653E-2,1.043815166E-1
1.388735217E0,8.017600514E-3,-6.162098423E-2,1.068249792E-1
1.391146207E0,6.795870606E-3,-5.245801434E-2,1.111010313E-1
1.393557248E0,6.795870606E-3,-4.451677203E-2,1.147662178E-1
1.395968238E0,2.519817324E-3,-3.474293277E-2,1.165988147E-1
1.398379279E0,1.298087649E-3,-2.619082667E-2,1.184314117E-1
1.400790269E0,1.298087649E-3,-1.702785492E-2,1.208748668E-1
1.403201311E0,1.298087649E-3,-7.864884101E-3,1.233183295E-1
1.405612352E0,1.298087649E-3,1.908952487E-3,1.251509190E-1
1.408023342E0,6.872228696E-4,1.168278884E-2,1.251509190E-1
1.410434384E0,6.872228696E-4,1.962403022E-2,1.227074638E-1
1.412845373E0,7.635809743E-5,2.756527252E-2,1.208748668E-1
1.415256415E0,7.635809743E-5,3.733910993E-2,1.196531355E-1
1.417667457E0,-5.345066893E-4,4.344775900E-2,1.184314117E-1
1.420078446E0,6.872228696E-4,4.955640435E-2,1.178205460E-1
1.422489488E0,-1.145371469E-3,5.810851231E-2,1.159879491E-1
1.424900477E0,-1.145371469E-3,6.299543381E-2,1.159879491E-1
1.427311519E0,-5.345066893E-4,6.849320978E-2,1.178205460E-1
1.429722561E0,-1.145371469E-3,7.154753804E-2,1.178205460E-1
1.432133550E0,6.872228696E-4,7.521272451E-2,1.202640012E-1
1.434544592E0,6.872228696E-4,7.765618712E-2,1.251509190E-1
1.436955582E0,1.908952487E-3,7.826705277E-2,1.306487024E-1
1.439366623E0,3.130682046E-3,7.826705277E-2,1.367573589E-1
1.441777665E0,4.352411721E-3,7.765618712E-2,1.440877318E-1
1.444188654E0,2.519817324E-3,7.521272451E-2,1.526398361E-1
1.446599696E0,6.795870606E-3,7.154753804E-2,1.618028134E-1
1.449010686E0,9.850194678E-3,6.971494108E-2,1.709657758E-1
1.451421727E0,1.595884189E-2,6.604975462E-2,1.795178801E-1
1.453832717E0,2.084576152E-2,6.116283685E-2,1.880699992E-1
1.456243759E0,2.695440874E-2,5.627591908E-2,1.984546930E-1
1.458654800E0,3.428478539E-2,5.199986324E-2,2.070067972E-1
1.461065790E0,4.222602770E-2,4.528035223E-2,2.167806327E-1
1.463476832E0,5.016727000E-2,3.794997558E-2,2.259436101E-1
1.465887821E0,5.627591908E-2,3.306305781E-2,2.338848561E-1
1.468298863E0,6.421715766E-2,2.512181364E-2,2.442695498E-1
1.470709904E0,7.399099320E-2,1.901316643E-2,2.528216541E-1
1.473120894E0,8.376483619E-2,1.351538301E-2,2.601520419E-1
1.475531936E0,9.170607477E-2,7.406735327E-3,2.693150043E-1
1.477942925E0,1.027016416E-1,7.635809743E-5,2.760345340E-1
1.480353967E0,1.124754772E-1,-6.032289471E-3,2.809214294E-1
1.482764957E0,1.210275814E-1,-1.091920771E-2,2.870301008E-1
1.485175998E0,1.271362305E-1,-1.824958436E-2,2.906952798E-1
1.487587040E0,1.320231557E-1,-2.619082667E-2,2.906952798E-1
1.489998029E0,1.362992078E-1,-3.474293277E-2,2.900844216E-1
1.492409071E0,1.442404389E-1,-3.901898861E-2,2.900844216E-1
1.494820061E0,1.534034163E-1,-4.573849961E-2,2.919169962E-1
1.497231102E0,1.625663936E-1,-5.123628303E-2,2.949713171E-1
1.499642144E0,1.717293561E-1,-5.673406646E-2,2.949713171E-1
1.502053134E0,1.753945500E-1,-6.039925665E-2,2.955822051E-1
1.504464175E0,1.766162813E-1,-6.589704007E-2,2.943604589E-1
1.506875165E0,1.753945500E-1,-7.139482349E-2,2.913061380E-1
1.509286207E0,1.729510874E-1,-7.322741300E-2,2.870301008E-1
1.511697248E0,1.698967665E-1,-7.750347257E-2,2.803105712E-1
1.514108238E0,1.680641770E-1,-7.872519642E-2,2.742019296E-1
1.516519279E0,1.662315726E-1,-7.872519642E-2,2.680932879E-1
1.518930269E0,1.631772518E-1,-7.811433077E-2,2.583194375E-1
1.521341311E0,1.607337892E-1,-7.750347257E-2,2.479347438E-1
1.523752352E0,1.558468789E-1,-7.506000996E-2,2.351065874E-1
1.526163342E0,1.527925581E-1,-7.139482349E-2,2.210566849E-1
1.528574384E0,1.448513120E-1,-7.139482349E-2,2.057850659E-1
1.530985373E0,1.381317973E-1,-6.956222653E-2,1.899025887E-1
1.533396415E0,1.301905513E-1,-6.467530876E-2,1.734092385E-1
1.535807457E0,1.204167232E-1,-6.101011857E-2,1.544724256E-1
1.538218446E0,1.112537459E-1,-5.673406646E-2,1.361464858E-1
1.540629488E0,1.014799103E-1,-5.184714869E-2,1.202640012E-1
1.543040477E0,9.048434347E-2,-4.512763396E-2,1.013271958E-1
1.545451519E0,8.009964228E-2,-3.901898861E-2,8.422297984E-2
1.547862509E0,6.849320978E-2,-3.291033953E-2,6.528617442E-2
1.550273550E0,5.505418777E-2,-2.680169232E-2,4.757109284E-2
1.552684592E0,4.222602770E-2,-2.130390890E-2,3.291033953E-2
1.555095582E0,2.878700197E-2,-1.397353224E-2,1.336266659E-2
1.557506623E0,1.473711245E-2,-7.864884101E-3,-3.130682046E-3
1.559917613E0,7.635809743E-5,-1.756236190E-3,-1.901316643E-2
1.562328654E0,-1.397353224E-2,4.963276442E-3,-3.367391974E-2
1.564739696E0,-2.802342176E-2,1.168278884E-2,-4.894553870E-2
1.567150686E0,-4.024071619E-2,1.840230078E-2,-6.360629201E-2
1.569561727E0,-5.184714869E-2,2.267835476E-2,-7.582359016E-2
1.571972717E0,-6.223184988E-2,3.000873141E-2,-8.620829135E-2
1.574383759E0,-7.200568914E-2,3.611737862E-2,-9.720385820E-2
1.576794748E0,-8.300124854E-2,4.100430012E-2,-1.051450968E-1
1.579205790E0,-9.216422588E-2,4.650207981E-2,-1.155297980E-1
1.581616832E0,-1.007163301E-1,5.199986324E-2,-1.240819097E-1
1.584027821E0,-1.098793000E-1,5.688678101E-2,-1.320231557E-1
1.586438863E0,-1.159879491E-1,6.238456443E-2,-1.411861181E-1
1.588849852E0,-1.214857325E-1,6.727148592E-2,-1.479056329E-1
1.591260894E0,-1.257617921E-1,7.276926935E-2,-1.540142894E-1
1.593671936E0,-1.294269711E-1,7.704532146E-2,-1.576794684E-1
1.596082925E0,-1.312595755E-1,8.254310489E-2,-1.613446623E-1
1.598493967E0,-1.343138963E-1,8.559742570E-2,-1.656207144E-1
1.600904957E0,-1.343138963E-1,8.987347782E-2,-1.686750352E-1
1.603315998E0,-1.330921650E-1,9.537126124E-2,-1.705076247E-1
1.605727040E0,-1.337030232E-1,9.842558950E-2,-1.698967665E-1
1.608138029E0,-1.294269711E-1,1.020907760E-1,-1.698967665E-1
1.610549071E0,-1.239291951E-1,1.075885594E-1,-1.698967665E-1
1.612960061E0,-1.172096804E-1,1.130863428E-1,-1.668424457E-1
1.615371102E0,-1.080467105E-1,1.173623949E-1,-1.668424457E-1
1.617782092E0,-9.827287495E-2,1.216384470E-1,-1.656207144E-1
1.620193134E0,-8.788817376E-2,1.259144992E-1,-1.662315726E-1
1.622604175E0,-7.933606207E-2,1.295796931E-1,-1.668424457E-1
1.625015165E0,-7.017309219E-2,1.332448870E-1,-1.686750352E-1
1.627426207E0,-6.101011857E-2,1.362992078E-1,-1.698967665E-1
1.629837196E0,-4.757109284E-2,1.393535286E-1,-1.711184978E-1
1.632248238E0,-3.657552972E-2,1.424078494E-1,-1.723402292E-1
1.634659279E0,-2.252563834E-2,1.436295807E-1,-1.760054082E-1
1.637070269E0,-7.864884101E-3,1.454621702E-1,-1.808923334E-1
1.639481311E0,6.795870606E-3,1.454621702E-1,-1.839466542E-1
1.641892300E0,2.084576152E-2,1.436295807E-1,-1.870009750E-1
1.644303342E0,3.428478539E-2,1.411861181E-1,-1.906661689E-1
1.646714384E0,4.894553870E-2,1.381317973E-1,-1.937204897E-1
1.649125373E0,6.116283685E-2,1.320231557E-1,-1.973856837E-1
1.651536415E0,7.215840369E-2,1.253036410E-1,-1.979965419E-1
1.653947404E0,8.009964228E-2,1.167515293E-1,-1.961639524E-1
1.656358446E0,8.865175396E-2,1.094211563E-1,-1.961639524E-1
1.658769436E0,9.353867173E-2,9.781472385E-2,-1.937204897E-1
1.661180477E0,1.008690447E-1,8.559742570E-2,-1.900553107E-1
1.663591519E0,1.045342386E-1,7.399099320E-2,-1.870009750E-1
1.666002509E0,1.081994250E-1,5.688678101E-2,-1.815031916E-1
1.668413550E0,1.106428802E-1,4.344775900E-2,-1.741728187E-1
1.670824540E0,1.130863428E-1,2.939786762E-2,-1.668424457E-1
1.673235582E0,1.130863428E-1,1.290451828E-2,-1.589011997E-1
1.675646623E0,1.118646115E-1,-2.977965865E-3,-1.497382224E-1
1.678057613E0,1.100320220E-1,-1.947131567E-2,-1.405752599E-1
1.680468654E0,1.075885594E-1,-3.657552972E-2,-1.314122826E-1
1.682879644E0,1.081994250E-1,-5.184714869E-2,-1.210275814E-1
1.685290686E0,1.051450968E-1,-6.834049523E-2,-1.106428802E-1
1.687701727E0,1.039233729E-1,-8.177952468E-2,-1.020907760E-1
1.690112717E0,9.964732081E-2,-9.644027799E-2,-9.353867173E-2
1.692523759E0,9.598212689E-2,-1.098793000E-1,-8.498656005E-2
1.694934748E0,9.292780608E-2,-1.227074638E-1,-7.582359016E-2
1.697345790E0,8.804088831E-2,-1.343138963E-1,-6.727148592E-2
1.699756832E0,8.376483619E-2,-1.446985900E-1,-5.566505343E-2
1.702167821E0,8.193223923E-2,-1.514181048E-1,-4.833467677E-2
1.704578863E0,8.071050793E-2,-1.599702090E-1,-4.100430012E-2
1.706989852E0,7.826705277E-2,-1.660788655E-1,-3.428478539E-2
1.709400894E0,7.948877662E-2,-1.697440445E-1,-3.000873141E-2
1.711811884E0,8.009964228E-2,-1.709657758E-1,-2.634354308E-2
1.714222925E0,8.071050793E-2,-1.727983803E-1,-2.390008420E-2
1.716633967E0,8.254310489E-2,-1.721875072E-1,-2.328922041E-2
1.719044957E0,8.376483619E-2,-1.703549176E-1,-2.206749097E-2
1.721455998E0,8.376483619E-2,-1.679114550E-1,-2.145662531E-2
1.723866988E0,8.376483619E-2,-1.630245447E-1,-2.267835476E-2
1.726278029E0,8.437569439E-2,-1.569158882E-1,-2.390008420E-2
1.728689071E0,8.498656005E-2,-1.477529258E-1,-2.512181364E-2
1.731100061E0,8.620829135E-2,-1.385899484E-1,-2.695440874E-2
1.733511102E0,8.743002266E-2,-1.282052398E-1,-3.000873141E-2
1.735922092E0,8.681915700E-2,-1.153770834E-1,-3.184132650E-2
1.738333134E0,8.681915700E-2,-1.037706509E-1,-3.550651670E-2
1.740744175E0,8.559742570E-2,-8.910989761E-2,-3.978256881E-2
1.743155165E0,8.254310489E-2,-7.567087561E-2,-4.283689335E-2
1.745566207E0,8.009964228E-2,-5.978839099E-2,-4.466948658E-2
1.747977196E0,7.704532146E-2,-4.573849961E-2,-4.711294547E-2
1.750388238E0,7.338013500E-2,-2.924515121E-2,-4.955640435E-2
1.752799279E0,6.727148592E-2,-1.519526169E-2,-5.077813566E-2
1.755210269E0,6.482802331E-2,6.872228696E-4,-5.016727000E-2
1.757621311E0,6.116283685E-2,1.595884189E-2,-5.261072889E-2
1.760032300E0,5.749764666E-2,3.000873141E-2,-5.383246019E-2
1.762443342E0,5.688678101E-2,4.772381112E-2,-5.505418777E-2
1.764854332E0,5.077813566E-2,6.055197120E-2,-5.566505343E-2
1.767265373E0,4.711294547E-2,7.399099320E-2,-5.871937796E-2
1.769676415E0,4.344775900E-2,8.865175396E-2,-6.177370250E-2
1.772087404E0,3.794997558E-2,1.002581790E-1,-6.421715766E-2
1.774498446E0,3.123046272E-2,1.118646115E-1,-7.032580674E-2
1.776909436E0,2.573267929E-2,1.228601784E-1,-7.582359016E-2
1.779320477E0,1.901316643E-2,1.308014244E-1,-8.009964228E-2
1.781731519E0,1.107192412E-2,1.405752599E-1,-8.559742570E-2
1.784142509E0,6.185005885E-3,1.479056329E-1,-9.048434347E-2
1.786553550E0,-1.756236190E-3,1.540142894E-1,-9.476039559E-2
1.788964540E0,-1.153007243E-2,1.601229310E-1,-9.903645515E-2
1.791375582E0,-1.947131567E-2,1.662315726E-1,-1.027016416E-1
1.793786623E0,-3.535379842E-2,1.680641770E-1,-1.045342386E-1
1.796197613E0,-5.306887627E-2,1.705076247E-1,-1.045342386E-1
1.798608654E0,-7.078395784E-2,1.717293561E-1,-1.033125073E-1
1.801019644E0,-9.399681538E-2,1.711184978E-1,-1.039233729E-1
1.803430686E0,-1.141553521E-1,1.705076247E-1,-1.002581790E-1
1.805841675E0,-1.392008066E-1,1.668424457E-1,-9.842558950E-2
1.808252717E0,-1.575267613E-1,1.656207144E-1,-9.537126124E-2
1.810663759E0,-1.758527011E-1,1.607337892E-1,-9.353867173E-2
1.813074748E0,-1.935677826E-1,1.540142894E-1,-9.537126124E-2
1.815485790E0,-2.082285285E-1,1.485165060E-1,-9.720385820E-2
1.817896779E0,-2.283870727E-1,1.405752599E-1,-1.039233729E-1
1.820307821E0,-2.491564751E-1,1.314122826E-1,-1.136972085E-1
1.822718863E0,-2.625955045E-1,1.246927753E-1,-1.228601784E-1
1.825129852E0,-2.711476088E-1,1.161406636E-1,-1.332448870E-1
1.827540894E0,-2.815323174E-1,1.075885594E-1,-1.448513120E-1
1.829951884E0,-2.931387424E-1,9.537126124E-2,-1.540142894E-1
1.832362925E0,-3.010799885E-1,8.437569439E-2,-1.643989831E-1
1.834773967E0,-3.120755553E-1,7.032580674E-2,-1.729510874E-1
1.837184957E0,-3.194059134E-1,5.749764666E-2,-1.796706021E-1
1.839595998E0,-3.255145550E-1,4.344775900E-2,-1.845575273E-1
1.842006988E0,-3.316232264E-1,2.939786762E-2,-1.888335794E-1
1.844418029E0,-3.365101218E-1,1.595884189E-2,-1.912770271E-1
1.846829071E0,-3.438405097E-1,-5.345066893E-4,-1.906661689E-1
1.849240061E0,-3.523926139E-1,-1.641699113E-2,-1.912770271E-1
1.851651102E0,-3.627773225E-1,-3.413207084E-2,-1.882227063E-1
1.854062092E0,-3.786598146E-1,-5.184714869E-2,-1.833357960E-1
1.856473134E0,-3.963748813E-1,-6.834049523E-2,-1.723402292E-1
1.858884175E0,-4.171442986E-1,-8.544471115E-2,-1.564577371E-1
1.861295165E0,-4.330267608E-1,-1.031597927E-1,-1.399643868E-1
1.863706207E0,-4.171442986E-1,-1.123227626E-1,-1.332448870E-1
1.866117196E0,-3.682751060E-1,-1.123227626E-1,-1.216384470E-1
1.868528238E0,-3.175733387E-1,-1.098793000E-1,-1.063668281E-1
1.870939227E0,-2.821431756E-1,-1.074358448E-1,-9.170607477E-2
1.873350269E0,-2.613737583E-1,-1.080467105E-1,-7.826705277E-2
1.875761311E0,-2.570977211E-1,-1.123227626E-1,-6.788235158E-2
1.878172300E0,-2.693150043E-1,-1.220965981E-1,-5.994110554E-2
1.880583342E0,-2.992473841E-1,-1.385899484E-1,-5.322159454E-2
1.882994332E0,-3.395644724E-1,-1.575267613E-1,-4.955640435E-2
1.885405373E0,-3.914879560E-1,-1.807396114E-1,-4.894553870E-2
1.887816363E0,-4.513527155E-1,-2.045633495E-1,-5.199986324E-2
1.890227404E0,-5.130500793E-1,-2.326631248E-1,-5.322159454E-2
1.892638446E0,-5.771908760E-1,-2.577085793E-1,-5.566505343E-2
1.895049436E0,-6.407207847E-1,-2.827540338E-1,-5.749764666E-2
1.897460477E0,-7.079159021E-1,-3.090212345E-1,-5.871937796E-2
1.899871467E0,-7.726675868E-1,-3.340666890E-1,-6.055197120E-2
1.902282509E0,-8.404735923E-1,-3.578903973E-1,-6.116283685E-2
1.904693550E0,-9.095013142E-1,-3.811032772E-1,-6.421715766E-2
1.907104540E0,-9.779181480E-1,-4.024835229E-1,-6.482802331E-2
1.909515582E0,-1.046945930E0,-4.226420820E-1,-6.849320978E-2
1.911926571E0,-1.116584420E0,-4.428006113E-1,-6.849320978E-2
1.914337613E0,-1.183779597E0,-4.599048197E-1,-7.032580674E-2
1.916748654E0,-1.255250812E0,-4.788416326E-1,-7.093667239E-2
1.919159644E0,-1.323056698E0,-4.916698039E-1,-7.215840369E-2
1.921570686E0,-1.392695308E0,-5.051088333E-1,-7.521272451E-2
1.923981675E0,-1.461112142E0,-5.173261166E-1,-7.643445581E-2
1.926392717E0,-1.529529095E0,-5.252673626E-1,-7.887791097E-2
1.928803759E0,-1.597334981E0,-5.332086086E-1,-8.009964228E-2
1.931214748E0,-1.662697554E0,-5.387063622E-1,-8.071050793E-2
1.933625790E0,-1.728670955E0,-5.423715711E-1,-8.193223923E-2
1.936036779E0,-1.794033527E0,-5.435932875E-1,-8.315397054E-2
1.938447821E0,-1.856952548E0,-5.423715711E-1,-8.437569439E-2
1.940858811E0,-1.919871688E0,-5.405389667E-1,-8.437569439E-2
1.943269852E0,-1.979736447E0,-5.362629294E-1,-8.681915700E-2
1.945680894E0,-2.038990259E0,-5.301542878E-1,-8.743002266E-2
1.948091884E0,-2.096411467E0,-5.209913254E-1,-8.743002266E-2
1.950502925E0,-2.153222084E0,-5.124391913E-1,-8.926261961E-2
1.952913967E0,-2.206367254E0,-4.990001619E-1,-8.926261961E-2
1.955324957E0,-2.259512424E0,-4.855611324E-1,-9.048434347E-2
1.957735998E0,-2.310825109E0,-4.709003866E-1,-9.109520912E-2
1.960146988E0,-2.360305071E0,-4.537961781E-1,-9.109520912E-2
1.962558029E0,-2.409174442E0,-4.348593652E-1,-9.170607477E-2
1.964969019E0,-2.455600023E0,-4.147008359E-1,-9.353867173E-2
1.967380061E0,-2.500193119E0,-3.927097023E-1,-9.414953738E-2
1.969791102E0,-2.542342901E0,-3.719402850E-1,-9.537126124E-2
1.972202092E0,-2.583881617E0,-3.475056887E-1,-9.598212689E-2
1.974613134E0,-2.624198675E0,-3.212385178E-1,-9.659299254E-2
1.977024123E0,-2.662072420E0,-2.961930633E-1,-9.842558950E-2
1.979435165E0,-2.698724270E0,-2.699258626E-1,-9.842558950E-2
1.981846207E0,-2.732932568E0,-2.418260872E-1,-9.903645515E-2
1.984257196E0,-2.765919447E0,-2.112828493E-1,-9.964732081E-2
1.986668238E0,-2.799516916E0,-1.825722158E-1,-1.008690447E-1
1.989079227E0,-2.827616692E0,-1.514181048E-1,-1.020907760E-1
1.991490269E0,-2.857549191E0,-1.227074638E-1,-1.027016416E-1
1.993901311E0,-2.883205414E0,-9.033162892E-2,-1.045342386E-1
1.996312300E0,-2.911916018E0,-5.917752534E-2,-1.057559624E-1
1.998723342E0,-2.935739756E0,-2.985601686E-2,-1.057559624E-1
2.001134332E0,-2.958341837E0,4.352411721E-3,-1.075885594E-1
2.003545373E0,-2.980943680E0,3.550651670E-2,-1.100320220E-1
2.005956363E0,-3.001713276E0,6.849320978E-2,-1.112537459E-1
2.008367404E0,-3.020649910E0,9.903645515E-2,-1.130863428E-1
2.010778446E0,-3.038365126E0,1.326340139E-1,-1.149189398E-1
2.013189436E0,-3.054247618E0,1.619555205E-1,-1.179732606E-1
2.015600477E0,-3.067686558E0,1.918879002E-1,-1.179732606E-1
2.018011467E0,-3.079903841E0,2.218202800E-1,-1.198058575E-1
2.020422509E0,-3.089677811E0,2.505309284E-1,-1.234710440E-1
2.022833550E0,-3.098840714E0,2.780198455E-1,-1.259144992E-1
2.025244540E0,-3.106171131E0,3.036761582E-1,-1.277471036E-1
2.027655582E0,-3.111057997E0,3.299433291E-1,-1.295796931E-1
2.030066571E0,-3.115334034E0,3.519344628E-1,-1.314122826E-1
2.032477613E0,-3.117777586E0,3.745364547E-1,-1.338557452E-1
2.034888654E0,-3.117777586E0,3.934732676E-1,-1.362992078E-1
2.037299644E0,-3.114723206E0,4.130209386E-1,-1.387426704E-1
2.039710686E0,-3.112279654E0,4.301251769E-1,-1.399643868E-1
2.042121675E0,-3.106781960E0,4.435641766E-1,-1.417969912E-1
2.044532717E0,-3.097619057E0,4.551706314E-1,-1.442404389E-1
2.046943759E0,-3.089066744E0,4.649444520E-1,-1.472947747E-1
2.049354748E0,-3.079903841E0,4.716639817E-1,-1.472947747E-1
2.051765790E0,-3.066464901E0,4.783834815E-1,-1.491273642E-1
2.054176779E0,-3.052414894E0,4.789943397E-1,-1.509599537E-1
2.056587821E0,-3.034699917E0,4.789943397E-1,-1.515708268E-1
2.058998811E0,-3.015763044E0,4.783834815E-1,-1.540142894E-1
2.061409852E0,-2.997437000E0,4.734965563E-1,-1.552360058E-1
2.063820894E0,-2.975445986E0,4.667770565E-1,-1.570686102E-1
2.066231884E0,-2.952843904E0,4.582249522E-1,-1.576794684E-1
2.068642925E0,-2.926576853E0,4.472293854E-1,-1.582903415E-1
2.071053915E0,-2.902142286E0,4.350120723E-1,-1.595120728E-1
2.073464957E0,-2.875874996E0,4.160752594E-1,-1.589011997E-1
2.075875998E0,-2.846553564E0,3.977493346E-1,-1.595120728E-1
2.078286988E0,-2.815399408E0,3.788125217E-1,-1.601229310E-1
2.080698029E0,-2.785467148E0,3.543779254E-1,-1.595120728E-1
2.083109019E0,-2.753091097E0,3.299433291E-1,-1.589011997E-1
2.085520061E0,-2.719493628E0,3.018435538E-1,-1.582903415E-1
2.087931102E0,-2.684674263E0,2.749654949E-1,-1.570686102E-1
2.090342092E0,-2.649244308E0,2.456440032E-1,-1.570686102E-1
2.092753134E0,-2.611981392E0,2.138790339E-1,-1.552360058E-1
2.095164123E0,-2.574718714E0,1.821140647E-1,-1.558468789E-1
2.097575165E0,-2.535623312E0,1.472947747E-1,-1.521816850E-1
2.099986207E0,-2.497749805E0,1.130863428E-1,-1.503490955E-1
2.102397196E0,-2.458043575E0,7.704532146E-2,-1.485165060E-1
2.104808238E0,-2.418337345E0,4.039343446E-2,-1.466839015E-1
2.107219227E0,-2.377409458E0,3.130682046E-3,-1.454621702E-1
2.109630269E0,-2.335259676E0,-3.352120519E-2,-1.417969912E-1
2.112041311E0,-2.294331789E0,-7.139482349E-2,-1.387426704E-1
2.114452300E0,-2.249738693E0,-1.086575761E-1,-1.362992078E-1
2.116863342E0,-2.208810568E0,-1.465311944E-1,-1.332448870E-1
2.119274332E0,-2.166050196E0,-1.831830740E-1,-1.301905513E-1
2.121685373E0,-2.121457100E0,-2.198349684E-1,-1.271362305E-1
2.124096415E0,-2.078696489E0,-2.564868629E-1,-1.253036410E-1
2.126507404E0,-2.033492565E0,-2.913061380E-1,-1.222493127E-1
2.128918446E0,-1.988899350E0,-3.249036968E-1,-1.191949919E-1
2.131329436E0,-1.944917083E0,-3.591121435E-1,-1.155297980E-1
2.133740477E0,-1.899102211E0,-3.908770978E-1,-1.118646115E-1
2.136151467E0,-1.855730891E0,-4.208094776E-1,-1.081994250E-1
2.138562509E0,-1.811748624E0,-4.507418573E-1,-1.051450968E-1
2.140973550E0,-1.768377185E0,-4.776198864E-1,-1.014799103E-1
2.143384540E0,-1.723784089E0,-5.020545125E-1,-9.720385820E-2
2.145795582E0,-1.681634426E0,-5.258781910E-1,-9.292780608E-2
2.148206571E0,-1.637041211E0,-5.466476083E-1,-9.048434347E-2
2.150617613E0,-1.594280720E0,-5.649735332E-1,-8.743002266E-2
2.153028654E0,-1.552131057E0,-5.820778012E-1,-8.437569439E-2
2.155439644E0,-1.511203051E0,-5.949059129E-1,-8.193223923E-2
2.157850686E0,-1.470885992E0,-6.052906513E-1,-7.826705277E-2
2.160261675E0,-1.429347277E0,-6.138427258E-1,-7.521272451E-2
2.162672717E0,-1.390862703E0,-6.187296510E-1,-7.154753804E-2
2.165083759E0,-1.352989078E0,-6.193405390E-1,-6.910407543E-2
2.167494748E0,-1.315115571E0,-6.187296510E-1,-6.727148592E-2
2.169905790E0,-1.279074430E0,-6.156753302E-1,-6.482802331E-2
2.172316779E0,-1.244255185E0,-6.083449721E-1,-6.238456443E-2
2.174727821E0,-1.210046768E0,-5.997928381E-1,-6.055197120E-2
2.177138863E0,-1.178281784E0,-5.869646668E-1,-5.994110554E-2
2.179549852E0,-1.146516800E0,-5.729147792E-1,-5.688678101E-2
2.181960894E0,-1.116584420E0,-5.545888543E-1,-5.627591908E-2
2.184371884E0,-1.087262988E0,-5.338194370E-1,-5.566505343E-2
2.186782925E0,-1.060995817E0,-5.112174749E-1,-5.444332212E-2
2.189193915E0,-1.036561131E0,-4.873937368E-1,-5.261072889E-2
2.191604957E0,-1.012737393E0,-4.592939615E-1,-5.261072889E-2
2.194015998E0,-9.907463193E-1,-4.287507236E-1,-5.077813566E-2
2.196426988E0,-9.711986184E-1,-3.975966275E-1,-5.077813566E-2
2.198838029E0,-9.522618055E-1,-3.639990389E-1,-5.138900131E-2
2.201249019E0,-9.351575971E-1,-3.291797638E-1,-5.077813566E-2
2.203660061E0,-9.223294854E-1,-2.919169962E-1,-5.077813566E-2
2.206071102E0,-9.101121426E-1,-2.546542585E-1,-5.016727000E-2
2.208482092E0,-8.991165757E-1,-2.161697745E-1,-5.077813566E-2
2.210893134E0,-8.905645013E-1,-1.764635593E-1,-5.138900131E-2
2.213304123E0,-8.832340837E-1,-1.367573589E-1,-5.138900131E-2
2.215715165E0,-8.777363300E-1,-9.705114365E-2,-5.261072889E-2
2.218126207E0,-8.746820092E-1,-5.551233515E-2,-5.383246019E-2
2.220537196E0,-8.746820092E-1,-1.702785492E-2,-5.383246019E-2
2.222948238E0,-8.752928972E-1,2.390008420E-2,-5.566505343E-2
2.225359227E0,-8.783472180E-1,6.177370250E-2,-5.688678101E-2
2.227770269E0,-8.856775761E-1,1.002581790E-1,-5.688678101E-2
2.230181311E0,-8.917862177E-1,1.369100660E-1,-5.933023989E-2
2.232592300E0,-8.997274637E-1,1.735619605E-1,-6.055197120E-2
2.235003342E0,-9.113339186E-1,2.065486610E-1,-6.299543381E-2
2.237414332E0,-9.253838062E-1,2.383136153E-1,-6.421715766E-2
2.239825373E0,-9.382119179E-1,2.706894577E-1,-6.604975462E-2
2.242236415E0,-9.571487308E-1,2.994000912E-1,-6.849320978E-2
2.244647404E0,-9.748638272E-1,3.256672919E-1,-6.971494108E-2
2.247058446E0,-9.956332445E-1,3.488801420E-1,-7.215840369E-2
2.249469436E0,-1.018846035E0,3.714821339E-1,-7.460185885E-2
2.251880477E0,-1.041448116E0,3.904189467E-1,-7.521272451E-2
2.254291519E0,-1.068326116E0,4.063014388E-1,-7.765618712E-2
2.256702509E0,-1.095204234E0,4.209621847E-1,-8.009964228E-2
2.259113550E0,-1.125747442E0,4.313468933E-1,-8.193223923E-2
2.261524540E0,-1.154458046E0,4.398989975E-1,-8.315397054E-2
2.263935582E0,-1.187444806E0,4.453967810E-1,-8.559742570E-2
2.266346571E0,-1.221042395E0,4.478402436E-1,-8.926261961E-2
2.268757613E0,-1.255861640E0,4.478402436E-1,-9.048434347E-2
2.271168654E0,-1.293735266E0,4.441750646E-1,-9.353867173E-2
2.273579644E0,-1.331608891E0,4.374555349E-1,-9.476039559E-2
2.275990686E0,-1.371315122E0,4.276817143E-1,-9.842558950E-2
2.278401727E0,-1.411632180E0,4.166861475E-1,-9.903645515E-2
2.280812717E0,-1.452560067E0,4.001927972E-1,-1.020907760E-1
2.283223759E0,-1.495320678E0,3.818668425E-1,-1.045342386E-1
2.285634748E0,-1.539302945E0,3.629300296E-1,-1.075885594E-1
2.288045790E0,-1.582674265E0,3.409388959E-1,-1.081994250E-1
2.290456779E0,-1.628489137E0,3.165042996E-1,-1.112537459E-1
2.292867821E0,-1.676136613E0,2.877936661E-1,-1.130863428E-1
2.295278863E0,-1.721951485E0,2.596938908E-1,-1.167515293E-1
2.297689852E0,-1.770209789E0,2.285397798E-1,-1.173623949E-1
2.300100894E0,-1.818468094E0,1.973856837E-1,-1.191949919E-1
2.302511936E0,-1.865504622E0,1.643989831E-1,-1.198058575E-1
2.304922925E0,-1.914984703E0,1.289688200E-1,-1.222493127E-1
2.307333967E0,-1.964464784E0,9.231694043E-2,-1.240819097E-1
2.309744957E0,-2.013334036E0,5.627591908E-2,-1.259144992E-1
2.312155998E0,-2.064035654E0,1.779143699E-2,-1.277471036E-1
2.314566988E0,-2.111683130E0,-2.008217946E-2,-1.265253723E-1
2.316978029E0,-2.160552263E0,-5.917752534E-2,-1.289688200E-1
2.319389071E0,-2.211254120E0,-9.766200930E-2,-1.289688200E-1
2.321800061E0,-2.258901596E0,-1.367573589E-1,-1.295796931E-1
2.324211102E0,-2.306549072E0,-1.740200967E-1,-1.295796931E-1
2.326622092E0,-2.356639862E0,-2.106719911E-1,-1.308014244E-1
2.329033134E0,-2.404287338E0,-2.485456020E-1,-1.308014244E-1
2.331444123E0,-2.449491501E0,-2.839757502E-1,-1.308014244E-1
2.333855165E0,-2.496527910E0,-3.181841969E-1,-1.308014244E-1
2.336266207E0,-2.541732073E0,-3.517817557E-1,-1.301905513E-1
2.338677196E0,-2.587546825E0,-3.829358518E-1,-1.314122826E-1
2.341088238E0,-2.632750750E0,-4.122573733E-1,-1.301905513E-1
2.343499227E0,-2.675511360E0,-4.421897531E-1,-1.289688200E-1
2.345910269E0,-2.717661142E0,-4.666243196E-1,-1.289688200E-1
2.348321311E0,-2.759199858E0,-4.916698039E-1,-1.277471036E-1
2.350732300E0,-2.800127745E0,-5.136609077E-1,-1.265253723E-1
2.353143342E0,-2.839833975E0,-5.356520414E-1,-1.253036410E-1
2.355554332E0,-2.877096653E0,-5.521454215E-1,-1.240819097E-1
2.357965373E0,-2.915581226E0,-5.686387420E-1,-1.234710440E-1
2.360376415E0,-2.951011419E0,-5.814669132E-1,-1.216384470E-1
2.362787404E0,-2.985219717E0,-5.924624801E-1,-1.210275814E-1
2.365198446E0,-3.018817425E0,-6.004037261E-1,-1.185841262E-1
2.367609436E0,-3.049971581E0,-6.059014797E-1,-1.167515293E-1
2.370020477E0,-3.081125498E0,-6.077340841E-1,-1.149189398E-1
2.372431519E0,-3.110447168E0,-6.089558005E-1,-1.130863428E-1
2.374842509E0,-3.137936115E0,-6.089558005E-1,-1.112537459E-1
2.377253550E0,-3.162370682E0,-6.022363305E-1,-1.094211563E-1
2.379664540E0,-3.188026905E0,-5.955168009E-1,-1.088102907E-1
2.382075582E0,-3.211239815E0,-5.857429504E-1,-1.063668281E-1
2.384486623E0,-3.230787516E0,-5.735256672E-1,-1.063668281E-1
2.386897613E0,-3.250946045E0,-5.600866675E-1,-1.039233729E-1
2.389308654E0,-3.268661022E0,-5.423715711E-1,-1.014799103E-1
2.391719644E0,-3.283932686E0,-5.240456462E-1,-9.964732081E-2
2.394130686E0,-3.297982693E0,-5.038870573E-1,-9.781472385E-2
2.396541727E0,-3.308367252E0,-4.806742370E-1,-9.598212689E-2
2.398952717E0,-3.320584536E0,-4.562396407E-1,-9.414953738E-2
2.401363759E0,-3.326693296E0,-4.305832982E-1,-9.353867173E-2
2.403774748E0,-3.332801819E0,-4.030944109E-1,-9.292780608E-2
2.406185790E0,-3.337077856E0,-3.725511432E-1,-9.048434347E-2
2.408596832E0,-3.340132236E0,-3.426187932E-1,-9.048434347E-2
2.411007821E0,-3.340743065E0,-3.114646673E-1,-8.926261961E-2
2.413418863E0,-3.338910580E0,-2.790888548E-1,-8.804088831E-2
2.415829852E0,-3.334023714E0,-2.454912812E-1,-8.620829135E-2
2.418240894E0,-3.328525782E0,-2.131154537E-1,-8.620829135E-2
2.420651884E0,-3.321195364E0,-1.795178801E-1,-8.743002266E-2
2.423062925E0,-3.312032461E0,-1.459203213E-1,-8.620829135E-2
2.425473967E0,-3.301036835E0,-1.129336283E-1,-8.559742570E-2
2.427884957E0,-3.286376238E0,-7.811433077E-2,-8.620829135E-2
2.430295998E0,-3.272326231E0,-4.512763396E-2,-8.498656005E-2
2.432707040E0,-3.255222082E0,-1.336266659E-2,-8.437569439E-2
2.435118029E0,-3.235674381E0,2.084576152E-2,-8.498656005E-2
2.437529071E0,-3.213683128E0,5.138900131E-2,-8.498656005E-2
2.439940061E0,-3.191081285E0,8.254310489E-2,-8.620829135E-2
2.442351102E0,-3.167868376E0,1.124754772E-1,-8.559742570E-2
2.444762092E0,-3.140990257E0,1.399643868E-1,-8.620829135E-2
2.447173134E0,-3.112890482E0,1.680641770E-1,-8.681915700E-2
2.449584175E0,-3.084179878E0,1.943313628E-1,-8.743002266E-2
2.451995165E0,-3.053636789E0,2.187659442E-1,-8.620829135E-2
2.454406207E0,-3.020039082E0,2.407570779E-1,-8.681915700E-2
2.456817196E0,-2.986441612E0,2.633590698E-1,-8.743002266E-2
2.459228238E0,-2.949178696E0,2.835176289E-1,-8.681915700E-2
2.461639279E0,-2.911916018E0,3.024544120E-1,-8.865175396E-2
2.464050269E0,-2.874042511E0,3.177260458E-1,-8.804088831E-2
2.466461311E0,-2.835557938E0,3.323867917E-1,-8.804088831E-2
2.468872300E0,-2.792186499E0,3.446041048E-1,-8.865175396E-2
2.471283342E0,-2.749426126E0,3.549887836E-1,-8.865175396E-2
2.473694384E0,-2.705443859E0,3.623191714E-1,-8.865175396E-2
2.476105373E0,-2.659628868E0,3.720930219E-1,-8.804088831E-2
2.478516415E0,-2.611981392E0,3.769799173E-1,-8.804088831E-2
2.480927404E0,-2.563112259E0,3.788125217E-1,-8.743002266E-2
2.483338446E0,-2.514243126E0,3.794233799E-1,-8.804088831E-2
2.485749488E0,-2.463541269E0,3.800342381E-1,-8.804088831E-2
2.488160477E0,-2.412228584E0,3.763690591E-1,-8.743002266E-2
2.490571519E0,-2.359694242E0,3.714821339E-1,-8.559742570E-2
2.492982509E0,-2.304716349E0,3.647626340E-1,-8.498656005E-2
2.495393550E0,-2.251571178E0,3.562105298E-1,-8.437569439E-2
2.497804540E0,-2.195982456E0,3.464366794E-1,-8.315397054E-2
2.500215582E0,-2.139782906E0,3.354411125E-1,-8.254310489E-2
2.502626623E0,-2.081140041E0,3.226129711E-1,-8.071050793E-2
2.505037613E0,-2.024329424E0,3.067304790E-1,-7.948877662E-2
2.507448654E0,-1.964464784E0,2.902371287E-1,-7.765618712E-2
2.509859644E0,-1.905821800E0,2.737437785E-1,-7.704532146E-2
2.512270686E0,-1.845957041E0,2.548069656E-1,-7.460185885E-2
2.514681727E0,-1.785481334E0,2.352592945E-1,-7.338013500E-2
2.517092717E0,-1.724394917E0,2.138790339E-1,-7.093667239E-2
2.519503759E0,-1.660254121E0,1.924987584E-1,-6.971494108E-2
2.521914748E0,-1.601611137E0,1.674533039E-1,-6.666062027E-2
2.524325790E0,-1.538081169E0,1.454621702E-1,-6.421715766E-2
2.526736832E0,-1.476383805E0,1.198058575E-1,-6.238456443E-2
2.529147821E0,-1.414075613E0,9.537126124E-2,-6.116283685E-2
2.531558863E0,-1.349934816E0,7.093667239E-2,-5.749764666E-2
2.533969852E0,-1.286404848E0,4.528035223E-2,-5.444332212E-2
2.536380894E0,-1.224096656E0,1.962403022E-2,-5.138900131E-2
2.538791936E0,-1.160566688E0,-7.254019380E-3,-4.894553870E-2
2.541202925E0,-1.097036839E0,-3.352120519E-2,-4.589121789E-2
2.543613967E0,-1.034728527E0,-5.978839099E-2,-4.344775900E-2
2.546024957E0,-9.705877900E-1,-8.666644245E-2,-4.039343446E-2
2.548435998E0,-9.082795978E-1,-1.111010313E-1,-3.794997558E-2
2.550847040E0,-8.459713459E-1,-1.355356276E-1,-3.428478539E-2
2.553258029E0,-7.824414372E-1,-1.611919403E-1,-3.184132650E-2
2.555669071E0,-7.176897526E-1,-1.844048053E-1,-2.939786762E-2
2.558080061E0,-6.566032767E-1,-2.082285285E-1,-2.756527252E-2
2.560491102E0,-5.949059129E-1,-2.332739830E-1,-2.451094985E-2
2.562902144E0,-5.332086086E-1,-2.558759749E-1,-2.145662531E-2
2.565313134E0,-4.684569240E-1,-2.754236460E-1,-1.718057133E-2
2.567724175E0,-4.092030525E-1,-2.968039215E-1,-1.351538301E-2
2.570135165E0,-3.481165767E-1,-3.163515925E-1,-1.168278884E-2
2.572546207E0,-2.858083546E-1,-3.352884054E-1,-9.239329956E-3
2.574957248E0,-2.265544683E-1,-3.536143601E-1,-6.185005885E-3
2.577368238E0,-1.648571342E-1,-3.688859642E-1,-4.352411721E-3
2.579779279E0,-1.049923822E-1,-3.835467100E-1,-3.130682046E-3
2.582190269E0,-4.573849961E-2,-3.969857395E-1,-7.635809743E-5
2.584601311E0,1.290451828E-2,-4.079813063E-1,2.367100911E-3
2.587012300E0,7.154753804E-2,-4.201986194E-1,4.199695308E-3
2.589423342E0,1.308014244E-1,-4.305832982E-1,6.643154658E-3
2.591834384E0,1.888335794E-1,-4.391354322E-1,9.086613543E-3
2.594245373E0,2.462548614E-1,-4.470766485E-1,1.030834299E-2
2.596656415E0,3.048978746E-1,-4.501309991E-1,1.153007243E-2
2.599067457E0,3.617083132E-1,-4.531853199E-1,1.397353224E-2
2.601478446E0,4.154644012E-1,-4.574613571E-1,1.702785492E-2
2.603889488E0,4.704422355E-1,-4.574613571E-1,1.641699113E-2
2.606300477E0,5.266417861E-1,-4.568504989E-1,1.886045001E-2
2.608711519E0,5.803979039E-1,-4.531853199E-1,2.069304511E-2
2.611122509E0,6.347648501E-1,-4.501309991E-1,2.130390890E-2
2.613533550E0,6.879100800E-1,-4.446332157E-1,2.252563834E-2
2.615944592E0,7.398335934E-1,-4.366919696E-1,2.435823344E-2
2.618355582E0,7.917571068E-1,-4.281398654E-1,2.557996288E-2
2.620766623E0,8.430697322E-1,-4.183660150E-1,2.435823344E-2
2.623177613E0,8.931606412E-1,-4.049269855E-1,2.680169232E-2
2.625588654E0,9.414190054E-1,-3.933205605E-1,2.741255611E-2
2.627999696E0,9.921207428E-1,-3.774380684E-1,2.802342176E-2
2.630410686E0,1.037935615E0,-3.615556061E-1,2.924515121E-2
2.632821727E0,1.084972262E0,-3.444513679E-1,2.924515121E-2
2.635232717E0,1.130176187E0,-3.267363012E-1,3.046688065E-2
2.637643759E0,1.176601887E0,-3.053560257E-1,3.046688065E-2
2.640054748E0,1.219362497E0,-2.858083546E-1,2.985601686E-2
2.642465790E0,1.262733817E0,-2.632063627E-1,3.046688065E-2
2.644876832E0,1.303661823E0,-2.412152290E-1,3.229947388E-2
2.647287821E0,1.343978882E0,-2.167806327E-1,3.168861195E-2
2.649698863E0,1.384295940E0,-1.929569095E-1,3.229947388E-2
2.652109904E0,1.421558738E0,-1.697440445E-1,3.168861195E-2
2.654520894E0,1.459432364E0,-1.428660005E-1,3.291033953E-2
2.656931936E0,1.495473385E0,-1.159879491E-1,3.352120519E-2
2.659342925E0,1.530292630E0,-8.849903196E-2,3.413207084E-2
2.661753967E0,1.565111876E0,-6.162098423E-2,3.291033953E-2
2.664164957E0,1.597487807E0,-3.474293277E-2,3.474293277E-2
2.666575998E0,1.629252672E0,-7.254019380E-3,3.535379842E-2
2.668987040E0,1.659185052E0,2.023489587E-2,3.413207084E-2
2.671398029E0,1.689117432E0,4.711294547E-2,3.474293277E-2
2.673809071E0,1.717828155E0,7.521272451E-2,3.474293277E-2
2.676220061E0,1.742262721E0,1.014799103E-1,3.718639165E-2
2.678631102E0,1.768529892E0,1.289688200E-1,3.779725730E-2
2.681042144E0,1.792964458E0,1.552360058E-1,3.840812296E-2
2.683453134E0,1.817399025E0,1.802814752E-1,3.901898861E-2
2.685864175E0,1.838779330E0,2.065486610E-1,3.901898861E-2
2.688275165E0,1.860159636E0,2.309832424E-1,3.962985426E-2
2.690686207E0,1.878485560E0,2.535852492E-1,4.024071619E-2
2.693097248E0,1.899254918E0,2.767980993E-1,4.085158184E-2
2.695508238E0,1.915748358E0,2.994000912E-1,4.146244749E-2
2.697919279E0,1.931019902E0,3.201695085E-1,4.329504073E-2
2.700330269E0,1.946291566E0,3.397171795E-1,4.451677203E-2
2.702741311E0,1.960341454E0,3.586539924E-1,4.696023092E-2
2.705152352E0,1.973780513E0,3.751473427E-1,4.757109284E-2
2.707563342E0,1.985386848E0,3.940841556E-1,4.818195850E-2
2.709974384E0,1.995160699E0,4.069122970E-1,4.879282415E-2
2.712385373E0,2.004934549E0,4.209621847E-1,5.001455545E-2
2.714796415E0,2.011654139E0,4.325686097E-1,5.062541738E-2
2.717207457E0,2.018373489E0,4.429533184E-1,5.245801434E-2
2.719618446E0,2.024482250E0,4.521162808E-1,5.429060757E-2
2.722029488E0,2.028758287E0,4.594466686E-1,5.612320080E-2
2.724440477E0,2.030590773E0,4.649444520E-1,5.734493211E-2
2.726851519E0,2.034255981E0,4.698313773E-1,5.856665969E-2
2.729262561E0,2.035477877E0,4.722748399E-1,5.978839099E-2
2.731673550E0,2.035477877E0,4.716639817E-1,6.039925665E-2
2.734084592E0,2.033645153E0,4.704422355E-1,6.345357746E-2
2.736495582E0,2.031812668E0,4.667770565E-1,6.467530876E-2
2.738906623E0,2.028758287E0,4.631118476E-1,6.467530876E-2
2.741317613E0,2.024482250E0,4.563923478E-1,6.650790572E-2
2.743728654E0,2.018984556E0,4.478402436E-1,6.772962958E-2
2.746139696E0,2.011654139E0,4.380663931E-1,6.956222653E-2
2.748550686E0,2.003712893E0,4.264599681E-1,7.200568914E-2
2.750961727E0,1.996382475E0,4.136318266E-1,7.139482349E-2
2.753372769E0,1.987219453E0,3.977493346E-1,7.322741300E-2
2.755783759E0,1.976223946E0,3.818668425E-1,7.383827865E-2
2.758194800E0,1.964006662E0,3.635408878E-1,7.628174126E-2
2.760605790E0,1.952400208E0,3.446041048E-1,7.689260691E-2
2.763016832E0,1.940182924E0,3.244455457E-1,7.750347257E-2
2.765427873E0,1.924911261E0,3.024544120E-1,7.872519642E-2
2.767838863E0,1.910861373E0,2.804632783E-1,7.811433077E-2
2.770249904E0,1.895589709E0,2.560287118E-1,7.933606207E-2
2.772660894E0,1.880928993E0,2.328158319E-1,7.994692773E-2
2.775071936E0,1.863824844E0,2.065486610E-1,8.055779338E-2
2.777482925E0,1.844887972E0,1.784488708E-1,8.177952468E-2
2.779893967E0,1.826562047E0,1.515708268E-1,8.116865903E-2
2.782305009E0,1.808846951E0,1.253036410E-1,8.116865903E-2
2.784715998E0,1.789299250E0,9.720385820E-2,8.177952468E-2
2.787127040E0,1.769140720E0,6.849320978E-2,8.177952468E-2
2.789538029E0,1.750203967E0,4.039343446E-2,8.300124854E-2
2.791949071E0,1.728823662E0,1.046105940E-2,8.239039034E-2
2.794360113E0,1.708054304E0,-1.702785492E-2,8.177952468E-2
2.796771102E0,1.686673999E0,-4.573849961E-2,7.994692773E-2
2.799182144E0,1.663461208E0,-7.200568914E-2,8.177952468E-2
2.801593134E0,1.645135164E0,-9.888373315E-2,7.994692773E-2
2.804004175E0,1.620700598E0,-1.269835234E-1,7.872519642E-2
2.806415217E0,1.598709464E0,-1.526398361E-1,7.872519642E-2
2.808826207E0,1.574885726E0,-1.789070219E-1,7.872519642E-2
2.811237248E0,1.551672935E0,-2.033416182E-1,7.750347257E-2
2.813648238E0,1.529681802E0,-2.253327519E-1,7.567087561E-2
2.816059279E0,1.507079720E0,-2.485456020E-1,7.506000996E-2
2.818470321E0,1.484477758E0,-2.693150043E-1,7.444914430E-2
2.820881311E0,1.461264968E0,-2.906952798E-1,7.383827865E-2
2.823292352E0,1.438052058E0,-3.071886301E-1,7.139482349E-2
2.825703342E0,1.415450096E0,-3.242928386E-1,7.078395784E-2
2.828114384E0,1.392848015E0,-3.401753306E-1,6.956222653E-2
2.830525425E0,1.370856881E0,-3.530034721E-1,6.834049523E-2
2.832936415E0,1.349476695E0,-3.621664643E-1,6.711876392E-2
2.835347457E0,1.326874614E0,-3.725511432E-1,6.650790572E-2
2.837758446E0,1.306105256E0,-3.792706728E-1,6.406444311E-2
2.840169488E0,1.285335898E0,-3.853793144E-1,6.406444311E-2
2.842580477E0,1.263955593E0,-3.896553814E-1,6.162098423E-2
2.844991519E0,1.242575288E0,-3.908770978E-1,5.856665969E-2
2.847402561E0,1.223638535E0,-3.896553814E-1,5.795579776E-2
2.849813550E0,1.205312610E0,-3.853793144E-1,5.673406646E-2
2.852224592E0,1.185154080E0,-3.817141354E-1,5.429060757E-2
2.854635582E0,1.168049812E0,-3.731620312E-1,5.306887627E-2
2.857046623E0,1.149723887E0,-3.646099269E-1,5.184714869E-2
2.859457665E0,1.133841395E0,-3.536143601E-1,5.123628303E-2
2.861868654E0,1.118569732E0,-3.389535844E-1,4.879282415E-2
2.864279696E0,1.105130792E0,-3.242928386E-1,4.757109284E-2
2.866690686E0,1.090469956E0,-3.065777719E-1,4.634936526E-2
2.869101727E0,1.077031016E0,-2.858083546E-1,4.268417507E-2
2.871512769E0,1.065424562E0,-2.650389671E-1,4.268417507E-2
2.873923759E0,1.055650711E0,-2.430478185E-1,4.146244749E-2
2.876334800E0,1.046487689E0,-2.173915058E-1,3.962985426E-2
2.878745790E0,1.037324786E0,-1.917351782E-1,3.840812296E-2
2.881156832E0,1.030605197E0,-1.636354029E-1,3.657552972E-2
2.883567873E0,1.023885727E0,-1.349247545E-1,3.474293277E-2
2.885978863E0,1.019609690E0,-1.062141135E-1,3.413207084E-2
2.888389904E0,1.015333652E0,-7.567087561E-2,3.291033953E-2
2.890800894E0,1.012890220E0,-4.451677203E-2,3.291033953E-2
2.893211936E0,1.011668444E0,-1.275180187E-2,3.229947388E-2
2.895622977E0,1.011668444E0,1.962403022E-2,3.046688065E-2
2.898033967E0,1.013501048E0,5.261072889E-2,2.985601686E-2
2.900445009E0,1.014722705E0,8.559742570E-2,3.046688065E-2
2.902855998E0,1.018998861E0,1.185841262E-1,2.863428742E-2
2.905267040E0,1.023274899E0,1.503490955E-1,2.985601686E-2
2.907678082E0,1.031826973E0,1.827249229E-1,2.741255611E-2
2.910089071E0,1.040379047E0,2.144898921E-1,2.619082667E-2
2.912500113E0,1.049542069E0,2.462548614E-1,2.802342176E-2
2.914911154E0,1.059926748E0,2.761872411E-1,2.680169232E-2
2.917322144E0,1.073365808E0,3.042870164E-1,2.802342176E-2
2.919733186E0,1.088026524E0,3.342193961E-1,2.741255611E-2
2.922144175E0,1.102076411E0,3.617083132E-1,2.802342176E-2
2.924555217E0,1.117348075E0,3.861429095E-1,2.863428742E-2
2.926966207E0,1.136895657E0,4.099666178E-1,2.985601686E-2
2.929377248E0,1.157665133E0,4.325686097E-1,3.107774630E-2
2.931788290E0,1.177212834E0,4.508945644E-1,3.107774630E-2
2.934199279E0,1.200425625E0,4.692205191E-1,3.352120519E-2
2.936610321E0,1.222416759E0,4.857138693E-1,3.352120519E-2
2.939021311E0,1.246240497E0,4.997637570E-1,3.474293277E-2
2.941432352E0,1.273729444E0,5.119810700E-1,3.840812296E-2
2.943843394E0,1.301829219E0,5.211440325E-1,3.840812296E-2
2.946254384E0,1.330539823E0,5.278635025E-1,4.024071619E-2
2.948665425E0,1.361083031E0,5.327504277E-1,4.268417507E-2
2.951076415E0,1.391626358E0,5.351939201E-1,4.329504073E-2
2.953487457E0,1.422780395E0,5.351939201E-1,4.634936526E-2
2.955898498E0,1.457599759E0,5.333613157E-1,5.001455545E-2
2.958309488E0,1.491808176E0,5.284743905E-1,5.123628303E-2
2.960720529E0,1.527849197E0,5.205331445E-1,5.429060757E-2
2.963131519E0,1.563890219E0,5.101484656E-1,5.795579776E-2
2.965542561E0,1.603596449E0,4.985420108E-1,5.917752534E-2
2.967953550E0,1.642080903E0,4.844921231E-1,6.223184988E-2
2.970364592E0,1.681176186E0,4.679987729E-1,6.528617442E-2
2.972775634E0,1.722715020E0,4.502837062E-1,6.772962958E-2
2.975186623E0,1.761199474E0,4.282925725E-1,7.078395784E-2
2.977597665E0,1.805181742E0,4.063014388E-1,7.444914430E-2
2.980008654E0,1.846109748E0,3.836994469E-1,7.811433077E-2
2.982419696E0,1.890092015E0,3.592648506E-1,7.994692773E-2
2.984830738E0,1.933463335E0,3.311650753E-1,8.361211419E-2
2.987241727E0,1.976834774E0,3.024544120E-1,8.605557680E-2
2.989652769E0,2.020817041E0,2.725220621E-1,8.972076327E-2
2.992063759E0,2.066020966E0,2.419788092E-1,9.277509153E-2
2.994474800E0,2.111225128E0,2.120464295E-1,9.644027799E-2
2.996885842E0,2.157039881E0,1.821140647E-1,9.766200930E-2
2.999296832E0,2.201022148E0,1.485165060E-1,1.025489271E-1
3.001707873E0,2.246836901E0,1.161406636E-1,1.043815166E-1
3.004118863E0,2.293873549E0,8.437569439E-2,1.068249792E-1
3.006529904E0,2.339077711E0,5.322159454E-2,1.092684343E-1
3.008940946E0,2.384281635E0,1.962403022E-2,1.129336283E-1
3.011351936E0,2.428874731E0,-1.153007243E-2,1.147662178E-1
3.013762977E0,2.474689484E0,-4.207331315E-2,1.172096804E-1
3.016173967E0,2.518671751E0,-7.139482349E-2,1.196531355E-1
3.018585009E0,2.563265085E0,-1.001054645E-1,1.220965981E-1
3.020996050E0,2.607247353E0,-1.263726503E-1,1.239291951E-1
3.023407040E0,2.649396896E0,-1.544724256E-1,1.245400533E-1
3.025818082E0,2.692157507E0,-1.795178801E-1,1.269835234E-1
3.028229071E0,2.734307051E0,-2.027307451E-1,1.275943816E-1
3.030640113E0,2.776456833E0,-2.228892893E-1,1.282052398E-1
3.033051154E0,2.817384720E0,-2.436586916E-1,1.300378442E-1
3.035462144E0,2.857701778E0,-2.601520419E-1,1.306487024E-1
3.037873186E0,2.897408009E0,-2.760345340E-1,1.306487024E-1
3.040284175E0,2.934670687E0,-2.882518172E-1,1.324812919E-1
3.042695217E0,2.971933603E0,-2.998582423E-1,1.324812919E-1
3.045106259E0,3.008585453E0,-3.102429509E-1,1.337030232E-1
3.047517248E0,3.044015646E0,-3.157407343E-1,1.330921650E-1
3.049928290E0,3.077613115E0,-3.194059134E-1,1.318704337E-1
3.052339279E0,3.110599756E0,-3.218493760E-1,1.318704337E-1
3.054750321E0,3.142975569E0,-3.212385178E-1,1.324812919E-1
3.057161363E0,3.172908068E0,-3.181841969E-1,1.318704337E-1
3.059572352E0,3.202229500E0,-3.126864135E-1,1.312595755E-1
3.061983394E0,3.230940104E0,-3.053560257E-1,1.312595755E-1
3.064394384E0,3.256596565E0,-2.943604589E-1,1.300378442E-1
3.066805425E0,3.280420303E0,-2.827540338E-1,1.294269711E-1
3.069216415E0,3.305465698E0,-2.674824297E-1,1.282052398E-1
3.071627457E0,3.328067780E0,-2.509890795E-1,1.269835234E-1
3.074038498E0,3.348226309E0,-2.332739830E-1,1.275943816E-1
3.076449488E0,3.366552114E0,-2.131154537E-1,1.263726503E-1
3.078860529E0,3.383656263E0,-1.905134469E-1,1.257617921E-1
3.081271519E0,3.399538755E0,-1.673005968E-1,1.245400533E-1
3.083682561E0,3.411756039E0,-1.428660005E-1,1.257617921E-1
3.086093602E0,3.422751665E0,-1.172096804E-1,1.245400533E-1
3.088504592E0,3.433747292E0,-9.033162892E-2,1.227074638E-1
3.090915634E0,3.441688538E0,-6.101011857E-2,1.227074638E-1
3.093326675E0,3.447797060E0,-3.168861195E-2,1.227074638E-1
3.095737665E0,3.452073336E0,-2.367100911E-3,1.227074638E-1
3.098148707E0,3.456960201E0,2.878700197E-2,1.220965981E-1
3.100559696E0,3.457571030E0,5.933023989E-2,1.220965981E-1
3.102970738E0,3.456349373E0,8.926261961E-2,1.202640012E-1
3.105381727E0,3.453294992E0,1.198058575E-1,1.202640012E-1
3.107792769E0,3.448408127E0,1.521816850E-1,1.214857325E-1
3.110203811E0,3.442910194E0,1.808923334E-1,1.208748668E-1
3.112614800E0,3.434968948E0,2.102138400E-1,1.214857325E-1
3.115025842E0,3.425806046E0,2.395353466E-1,1.220965981E-1
3.117436832E0,3.414199591E0,2.688568532E-1,1.214857325E-1
3.119847873E0,3.400760651E0,2.957349122E-1,1.220965981E-1
3.122258915E0,3.385488987E0,3.213912249E-1,1.227074638E-1
3.124669904E0,3.368384838E0,3.464366794E-1,1.227074638E-1
3.127080946E0,3.350058794E0,3.696495593E-1,1.239291951E-1
3.129491936E0,3.329900265E0,3.910298049E-1,1.245400533E-1
3.131902977E0,3.307909250E0,4.124100804E-1,1.251509190E-1
3.134314019E0,3.285917997E0,4.313468933E-1,1.269835234E-1
3.136725009E0,3.260261774E0,4.490619600E-1,1.275943816E-1
3.139136050E0,3.235216141E0,4.631118476E-1,1.282052398E-1
3.141547040E0,3.206505537E0,4.759400189E-1,1.294269711E-1
3.143958082E0,3.176573277E0,4.881573021E-1,1.300378442E-1
3.146369123E0,3.145419121E0,4.973202944E-1,1.312595755E-1
3.148780113E0,3.112432480E0,5.040398240E-1,1.324812919E-1
3.151191154E0,3.078223944E0,5.083158612E-1,1.330921650E-1
3.153602144E0,3.042793751E0,5.113701820E-1,1.343138963E-1
3.156013186E0,3.007363558E0,5.144245028E-1,1.355356276E-1
3.158424227E0,2.968879223E0,5.125918984E-1,1.367573589E-1
3.160835217E0,2.929783821E0,5.089266896E-1,1.361464858E-1
3.163246259E0,2.890077591E0,5.046506524E-1,1.367573589E-1
3.165657248E0,2.848538876E0,4.973202944E-1,1.385899484E-1
3.168068290E0,2.805778265E0,4.899899065E-1,1.379790753E-1
3.170479279E0,2.762406826E0,4.783834815E-1,1.398116797E-1
3.172890321E0,2.717813730E0,4.667770565E-1,1.404225379E-1
3.175301363E0,2.671998978E0,4.515054226E-1,1.398116797E-1
3.177712352E0,2.626183987E0,4.362338185E-1,1.422551423E-1
3.180123394E0,2.580369234E0,4.179078639E-1,1.416442692E-1
3.182534436E0,2.531500101E0,3.995819092E-1,1.404225379E-1
3.184945425E0,2.481409073E0,3.800342381E-1,1.410334110E-1
3.187356467E0,2.432539940E0,3.586539924E-1,1.428660005E-1
3.189767457E0,2.384281635E0,3.348302543E-1,1.416442692E-1
3.192178498E0,2.332358122E0,3.116174042E-1,1.404225379E-1
3.194589488E0,2.280434608E0,2.884045243E-1,1.404225379E-1
3.197000529E0,2.230954647E0,2.627482116E-1,1.410334110E-1
3.199411571E0,2.178420067E0,2.346484363E-1,1.404225379E-1
3.201822561E0,2.126496553E0,2.089921087E-1,1.392008066E-1
3.204233602E0,2.075184107E0,1.827249229E-1,1.373682171E-1
3.206644592E0,2.020817041E0,1.552360058E-1,1.367573589E-1
3.209055634E0,1.967671871E0,1.271362305E-1,1.367573589E-1
3.211466675E0,1.916359186E0,9.964732081E-2,1.343138963E-1
3.213877665E0,1.863213897E0,7.338013500E-2,1.337030232E-1
3.216288707E0,1.808846951E0,4.528035223E-2,1.312595755E-1
3.218699696E0,1.756312609E0,1.840230078E-2,1.312595755E-1
3.221110738E0,1.703167319E0,-8.475748822E-3,1.294269711E-1
3.223521779E0,1.649411321E0,-3.474293277E-2,1.269835234E-1
3.225932769E0,1.595655203E0,-6.039925665E-2,1.257617921E-1
3.228343811E0,1.543120742E0,-8.544471115E-2,1.239291951E-1
3.230754800E0,1.490586400E0,-1.086575761E-1,1.208748668E-1
3.233165842E0,1.439273834E0,-1.324812919E-1,1.202640012E-1
3.235576884E0,1.386128545E0,-1.550832987E-1,1.190422773E-1
3.237987873E0,1.332372427E0,-1.764635593E-1,1.172096804E-1
3.240398915E0,1.282281518E0,-1.954003721E-1,1.147662178E-1
3.242809904E0,1.229747176E0,-2.149480432E-1,1.123227626E-1
3.245220946E0,1.177823663E0,-2.320522517E-1,1.104901657E-1
3.247631988E0,1.126510978E0,-2.485456020E-1,1.086575761E-1
3.250042977E0,1.077031016E0,-2.632063627E-1,1.068249792E-1
3.252454019E0,1.027550936E0,-2.754236460E-1,1.037706509E-1
3.254865009E0,9.756274223E-1,-2.888626754E-1,1.019380614E-1
3.257276050E0,9.267582297E-1,-2.986365259E-1,1.001054645E-1
3.259687040E0,8.778890371E-1,-3.084103465E-1,9.705114365E-2
3.262098082E0,8.302416205E-1,-3.151298761E-1,9.460768104E-2
3.264509123E0,7.825941443E-1,-3.206276596E-1,9.277509153E-2
3.266920113E0,7.343358397E-1,-3.261254430E-1,9.094249457E-2
3.269331154E0,6.866883636E-1,-3.285689056E-1,8.849903196E-2
3.271742144E0,6.414843798E-1,-3.285689056E-1,8.544471115E-2
3.274153186E0,5.962803960E-1,-3.291797638E-1,8.361211419E-2
3.276564227E0,5.504655242E-1,-3.261254430E-1,8.116865903E-2
3.278975217E0,5.070941448E-1,-3.224602342E-1,7.933606207E-2
3.281386259E0,4.631118476E-1,-3.181841969E-1,7.750347257E-2
3.283797300E0,4.191296101E-1,-3.108538091E-1,7.567087561E-2
3.286208290E0,3.757582009E-1,-3.029125631E-1,7.322741300E-2
3.288619332E0,3.354411125E-1,-2.937496006E-1,7.139482349E-2
3.291030321E0,2.932914495E-1,-2.833648920E-1,7.017309219E-2
3.293441363E0,2.535852492E-1,-2.711476088E-1,6.650790572E-2
3.295852404E0,2.132681608E-1,-2.595411837E-1,6.589704007E-2
3.298263394E0,1.760054082E-1,-2.436586916E-1,6.345357746E-2
3.300674436E0,1.369100660E-1,-2.289979309E-1,6.162098423E-2
3.303085425E0,9.964732081E-2,-2.131154537E-1,5.917752534E-2
3.305496467E0,6.421715766E-2,-1.941786408E-1,5.795579776E-2
3.307907457E0,3.000873141E-2,-1.752418280E-1,5.612320080E-2
3.310318498E0,-6.032289471E-3,-1.563050300E-1,5.367974192E-2
3.312729540E0,-3.901898861E-2,-1.379790753E-1,5.245801434E-2
3.315140529E0,-7.139482349E-2,-1.172096804E-1,5.062541738E-2
3.317551571E0,-1.025489271E-1,-9.521854669E-2,4.940368980E-2
3.319962561E0,-1.343138963E-1,-7.506000996E-2,4.696023092E-2
3.322373602E0,-1.636354029E-1,-5.429060757E-2,4.451677203E-2
3.324784644E0,-1.923460513E-1,-3.229947388E-2,4.207331315E-2
3.327195634E0,-2.198349684E-1,-9.086613543E-3,4.207331315E-2
3.329606675E0,-2.479347438E-1,1.168278884E-2,4.024071619E-2
3.332017665E0,-2.742019296E-1,3.489565104E-2,3.840812296E-2
3.334428707E0,-2.992473841E-1,5.749764666E-2,3.718639165E-2
3.336839748E0,-3.255145550E-1,7.826705277E-2,3.413207084E-2
3.339250738E0,-3.475056887E-1,1.020907760E-1,3.291033953E-2
3.341661779E0,-3.707185686E-1,1.222493127E-1,3.168861195E-2
3.344072769E0,-3.927097023E-1,1.430187225E-1,2.985601686E-2
3.346483811E0,-4.140899479E-1,1.619555205E-1,2.924515121E-2
3.348894852E0,-4.330267608E-1,1.827249229E-1,2.802342176E-2
3.351305842E0,-4.531853199E-1,2.028834671E-1,2.680169232E-2
3.353716884E0,-4.715112448E-1,2.218202800E-1,2.435823344E-2
3.356127873E0,-4.898371994E-1,2.383136153E-1,2.313650399E-2
3.358538915E0,-5.051088333E-1,2.566395700E-1,2.252563834E-2
3.360949957E0,-5.216021538E-1,2.719111741E-1,2.069304511E-2
3.363360946E0,-5.374846458E-1,2.877936661E-1,1.947131567E-2
3.365771988E0,-5.509236455E-1,3.012326956E-1,1.824958436E-2
3.368182977E0,-5.643627048E-1,3.146717250E-1,1.763872057E-2
3.370594019E0,-5.771908760E-1,3.256672919E-1,1.702785492E-2
3.373005061E0,-5.900190473E-1,3.378845751E-1,1.641699113E-2
3.375416050E0,-6.004037261E-1,3.482692838E-1,1.397353224E-2
3.377827092E0,-6.126210093E-1,3.555996716E-1,1.214093715E-2
3.380238082E0,-6.205622554E-1,3.647626340E-1,1.214093715E-2
3.382649123E0,-6.303361058E-1,3.696495593E-1,1.153007243E-2
3.385060165E0,-6.382773519E-1,3.751473427E-1,1.091920771E-2
3.387471154E0,-6.468294263E-1,3.775908053E-1,1.030834299E-2
3.389882196E0,-6.529380679E-1,3.818668425E-1,8.475748822E-3
3.392293186E0,-6.608793139E-1,3.812559843E-1,8.475748822E-3
3.394704227E0,-6.663771272E-1,3.812559843E-1,7.864884101E-3
3.397115217E0,-6.700422764E-1,3.800342381E-1,7.254019380E-3
3.399526259E0,-6.755400896E-1,3.769799173E-1,6.643154658E-3
3.401937300E0,-6.792052984E-1,3.733147383E-1,4.199695308E-3
3.404348290E0,-6.834813356E-1,3.672060966E-1,5.421424750E-3
3.406759332E0,-6.871465445E-1,3.598757088E-1,5.421424750E-3
3.409170321E0,-6.889790893E-1,3.531562090E-1,4.810560029E-3
3.411581363E0,-6.908116937E-1,3.421606421E-1,5.421424750E-3
3.413992404E0,-6.902008653E-1,3.317759335E-1,3.588830587E-3
3.416403394E0,-6.926442981E-1,3.201695085E-1,4.199695308E-3
3.418814436E0,-6.932551861E-1,3.067304790E-1,4.199695308E-3
3.421225425E0,-6.926442981E-1,2.939023077E-1,4.810560029E-3
3.423636467E0,-6.932551861E-1,2.780198455E-1,4.199695308E-3
3.426047509E0,-6.908116937E-1,2.615264952E-1,2.977965865E-3
3.428458498E0,-6.895899773E-1,2.456440032E-1,2.977965865E-3
3.430869540E0,-6.877573729E-1,2.285397798E-1,4.199695308E-3
3.433280529E0,-6.871465445E-1,2.083812505E-1,4.199695308E-3
3.435691571E0,-6.847030520E-1,1.888335794E-1,4.199695308E-3
3.438102613E0,-6.810378432E-1,1.698967665E-1,4.199695308E-3
3.440513602E0,-6.792052984E-1,1.479056329E-1,4.810560029E-3
3.442924644E0,-6.761509776E-1,1.265253723E-1,5.421424750E-3
3.445335634E0,-6.706531644E-1,1.057559624E-1,5.421424750E-3
3.447746675E0,-6.700422764E-1,8.254310489E-2,6.643154658E-3
3.450157717E0,-6.645445228E-1,6.116283685E-2,7.864884101E-3
3.452568707E0,-6.602684855E-1,3.794997558E-2,7.864884101E-3
3.454979748E0,-6.572141647E-1,1.412624773E-2,8.475748822E-3
3.457390738E0,-6.529380679E-1,-7.864884101E-3,9.086613543E-3
3.459801779E0,-6.474403143E-1,-3.107774630E-2,9.697478265E-3
3.462212821E0,-6.443859935E-1,-5.429060757E-2,9.697478265E-3
3.464623811E0,-6.394990683E-1,-7.689260691E-2,1.091920771E-2
3.467034852E0,-6.346121430E-1,-9.888373315E-2,1.153007243E-2
3.469445842E0,-6.309469342E-1,-1.202640012E-1,1.091920771E-2
3.471856884E0,-6.266708970E-1,-1.422551423E-1,1.214093715E-2
3.474267925E0,-6.211731434E-1,-1.642462611E-1,1.397353224E-2
3.476678915E0,-6.181188226E-1,-1.844048053E-1,1.397353224E-2
3.479089957E0,-6.138427258E-1,-2.051742077E-1,1.458439697E-2
3.481500946E0,-6.083449721E-1,-2.228892893E-1,1.580612548E-2
3.483911988E0,-6.059014797E-1,-2.406043708E-1,1.641699113E-2
3.486323029E0,-6.022363305E-1,-2.583194375E-1,1.763872057E-2
3.488734019E0,-5.991820097E-1,-2.760345340E-1,1.702785492E-2
3.491145061E0,-5.973494053E-1,-2.925278842E-1,1.824958436E-2
3.493556050E0,-5.930733681E-1,-3.059668839E-1,1.947131567E-2
3.495967092E0,-5.906298757E-1,-3.194059134E-1,2.008217946E-2
3.498378134E0,-5.857429504E-1,-3.310123384E-1,1.947131567E-2
3.500789123E0,-5.857429504E-1,-3.432296515E-1,1.947131567E-2
3.503200165E0,-5.839103460E-1,-3.517817557E-1,2.191477455E-2
3.505611154E0,-5.820778012E-1,-3.603338599E-1,2.130390890E-2
3.508022196E0,-5.826886296E-1,-3.682751060E-1,2.130390890E-2
3.510433238E0,-5.820778012E-1,-3.743837476E-1,2.130390890E-2
3.512844227E0,-5.814669132E-1,-3.768272102E-1,2.252563834E-2
3.515255269E0,-5.839103460E-1,-3.798815310E-1,2.252563834E-2
3.517666259E0,-5.845212340E-1,-3.804923892E-1,2.252563834E-2
3.520077300E0,-5.863538384E-1,-3.792706728E-1,2.252563834E-2
3.522488342E0,-5.887972713E-1,-3.780489266E-1,2.374736778E-2
3.524899332E0,-5.912407637E-1,-3.749946058E-1,2.252563834E-2
3.527310373E0,-5.942950845E-1,-3.688859642E-1,2.313650399E-2
3.529721363E0,-5.991820097E-1,-3.621664643E-1,2.191477455E-2
3.532132404E0,-6.034580469E-1,-3.542252183E-1,2.313650399E-2
3.534543446E0,-6.089558005E-1,-3.432296515E-1,2.313650399E-2
3.536954436E0,-6.162862182E-1,-3.334558010E-1,2.374736778E-2
3.539365477E0,-6.223948598E-1,-3.212385178E-1,2.130390890E-2
3.541776467E0,-6.297252178E-1,-3.077994883E-1,2.191477455E-2
3.544187509E0,-6.364447474E-1,-2.919169962E-1,2.069304511E-2
3.546598498E0,-6.468294263E-1,-2.754236460E-1,2.069304511E-2
3.549009540E0,-6.559923887E-1,-2.577085793E-1,1.886045001E-2
3.551420582E0,-6.669879556E-1,-2.387717664E-1,1.824958436E-2
3.553831571E0,-6.792052984E-1,-2.192240953E-1,1.763872057E-2
3.556242613E0,-6.908116937E-1,-1.984546930E-1,1.702785492E-2
3.558653654E0,-7.054724693E-1,-1.770744324E-1,1.702785492E-2
3.561064644E0,-7.170788646E-1,-1.550832987E-1,1.519526169E-2
3.563475686E0,-7.311288118E-1,-1.318704337E-1,1.458439697E-2
3.565886675E0,-7.482330203E-1,-1.074358448E-1,1.458439697E-2
3.568297717E0,-7.635046244E-1,-8.361211419E-2,1.153007243E-2
3.570708707E0,-7.818305492E-1,-5.917752534E-2,1.091920771E-2
3.573119748E0,-7.995456457E-1,-3.474293277E-2,9.086613543E-3
3.575530790E0,-8.178715706E-1,-9.697478265E-3,7.254019380E-3
3.577941779E0,-8.380300999E-1,1.534797717E-2,7.254019380E-3
3.580352821E0,-8.606321216E-1,4.039343446E-2,6.032289471E-3
3.582763811E0,-8.832340837E-1,6.421715766E-2,4.199695308E-3
3.585174852E0,-9.046143889E-1,8.926261961E-2,2.367100911E-3
3.587585894E0,-9.266055226E-1,1.143080741E-1,5.345066893E-4
3.589996884E0,-9.516509771E-1,1.362992078E-1,-1.298087649E-3
3.592407925E0,-9.766964316E-1,1.589011997E-1,-3.741546767E-3
3.594818915E0,-1.003574491E0,1.802814752E-1,-5.574141163E-3
3.597229957E0,-1.031063437E0,2.022725940E-1,-7.406735327E-3
3.599640998E0,-1.058552265E0,2.224311382E-1,-9.850194678E-3
3.602051988E0,-1.085430384E0,2.425896823E-1,-1.107192412E-2
3.604463029E0,-1.117195368E0,2.596938908E-1,-1.412624773E-2
3.606874071E0,-1.145905972E0,2.774089575E-1,-1.473711245E-2
3.609285061E0,-1.178892612E0,2.914588451E-1,-1.718057133E-2
3.611696102E0,-1.209435940E0,3.067304790E-1,-2.084576152E-2
3.614107092E0,-1.243033409E0,3.183369040E-1,-2.145662531E-2
3.616518134E0,-1.277241945E0,3.293324709E-1,-2.512181364E-2
3.618929123E0,-1.311450362E0,3.378845751E-1,-2.695440874E-2
3.621340165E0,-1.346269608E0,3.458258212E-1,-3.000873141E-2
3.623751207E0,-1.383532405E0,3.501018882E-1,-3.123046272E-2
3.626162196E0,-1.418351650E0,3.549887836E-1,-3.367391974E-2
3.628573238E0,-1.455614448E0,3.580431044E-1,-3.550651670E-2
3.630984227E0,-1.494098902E0,3.574322462E-1,-3.794997558E-2
3.633395269E0,-1.531361699E0,3.562105298E-1,-4.100430012E-2
3.635806311E0,-1.571067810E0,3.531562090E-1,-4.344775900E-2
3.638217300E0,-1.610774040E0,3.494910002E-1,-4.650207981E-2
3.640628342E0,-1.650480270E0,3.403280377E-1,-4.772381112E-2
3.643039332E0,-1.690186501E0,3.311650753E-1,-4.894553870E-2
3.645450373E0,-1.732946992E0,3.207803667E-1,-5.261072889E-2
3.647861415E0,-1.773264050E0,3.079521954E-1,-5.383246019E-2
3.650272404E0,-1.814192057E0,2.939023077E-1,-5.688678101E-2
3.652683446E0,-1.858174324E0,2.786307037E-1,-5.871937796E-2
3.655094436E0,-1.899713159E0,2.609156072E-1,-6.116283685E-2
3.657505477E0,-1.941251874E0,2.425896823E-1,-6.238456443E-2
3.659916519E0,-1.985234141E0,2.218202800E-1,-6.543888897E-2
3.662327509E0,-2.027994633E0,1.998291463E-1,-6.727148592E-2
3.664738550E0,-2.070144415E0,1.772271395E-1,-6.910407543E-2
3.667149540E0,-2.114126682E0,1.527925581E-1,-7.032580674E-2
3.669560582E0,-2.156276226E0,1.289688200E-1,-7.154753804E-2
3.671971623E0,-2.198426008E0,1.039233729E-1,-7.399099320E-2
3.674382613E0,-2.241797447E0,7.582359016E-2,-7.521272451E-2
3.676793654E0,-2.285168886E0,4.955640435E-2,-7.582359016E-2
3.679204644E0,-2.326707602E0,2.206749097E-2,-7.704532146E-2
3.681615686E0,-2.368246317E0,-6.032289471E-3,-7.826705277E-2
3.684026675E0,-2.411617756E0,-3.352120519E-2,-7.948877662E-2
3.686437717E0,-2.453767538E0,-6.101011857E-2,-8.132137358E-2
3.688848759E0,-2.493473768E0,-8.910989761E-2,-8.071050793E-2
3.691259748E0,-2.536234140E0,-1.172096804E-1,-8.193223923E-2
3.693670790E0,-2.576551199E0,-1.453094631E-1,-8.254310489E-2
3.696081832E0,-2.616257429E0,-1.709657758E-1,-8.315397054E-2
3.698492821E0,-2.654131174E0,-1.960112303E-1,-8.315397054E-2
3.700903863E0,-2.695059061E0,-2.216675580E-1,-8.376483619E-2
3.703314852E0,-2.733543634E0,-2.461021543E-1,-8.376483619E-2
3.705725894E0,-2.770806313E0,-2.699258626E-1,-8.315397054E-2
3.708136884E0,-2.807458162E0,-2.888626754E-1,-8.254310489E-2
3.710547925E0,-2.842888355E0,-3.108538091E-1,-8.254310489E-2
3.712958967E0,-2.878929377E0,-3.297906220E-1,-8.193223923E-2
3.715369957E0,-2.913748741E0,-3.468948305E-1,-8.132137358E-2
3.717780998E0,-2.946124554E0,-3.615556061E-1,-8.193223923E-2
3.720191988E0,-2.979111195E0,-3.756054938E-1,-8.071050793E-2
3.722603029E0,-3.011487007E0,-3.890444934E-1,-8.071050793E-2
3.725014071E0,-3.042030334E0,-4.006509483E-1,-7.948877662E-2
3.727425061E0,-3.071351767E0,-4.073704481E-1,-7.826705277E-2
3.729836102E0,-3.100062370E0,-4.153116941E-1,-7.765618712E-2
3.732247092E0,-3.126940489E0,-4.177551568E-1,-7.643445581E-2
3.734658134E0,-3.155040264E0,-4.208094776E-1,-7.521272451E-2
3.737069175E0,-3.178253174E0,-4.208094776E-1,-7.399099320E-2
3.739480165E0,-3.203298569E0,-4.208094776E-1,-7.215840369E-2
3.741891207E0,-3.224678755E0,-4.159225523E-1,-7.154753804E-2
3.744302196E0,-3.246670008E0,-4.092030525E-1,-7.154753804E-2
3.746713238E0,-3.265606642E0,-4.012618065E-1,-7.032580674E-2
3.749124279E0,-3.284543514E0,-3.920988441E-1,-6.849320978E-2
3.751535269E0,-3.301647663E0,-3.792706728E-1,-6.727148592E-2
3.753946311E0,-3.318752050E0,-3.664425015E-1,-6.727148592E-2
3.756357300E0,-3.331580162E0,-3.505600393E-1,-6.543888897E-2
3.758768342E0,-3.343797445E0,-3.340666890E-1,-6.421715766E-2
3.761179384E0,-3.352960348E0,-3.132972717E-1,-6.421715766E-2
3.763590373E0,-3.364566803E0,-2.925278842E-1,-6.421715766E-2
3.766001415E0,-3.371286392E0,-2.723693252E-1,-6.299543381E-2
3.768412457E0,-3.378005981E0,-2.497673333E-1,-6.238456443E-2
3.770823446E0,-3.383503675E0,-2.235001475E-1,-6.177370250E-2
3.773234488E0,-3.386558056E0,-1.996764243E-1,-6.116283685E-2
3.775645477E0,-3.389001369E0,-1.740200967E-1,-6.055197120E-2
3.778056519E0,-3.388390541E0,-1.471420527E-1,-6.055197120E-2
3.780467509E0,-3.387168884E0,-1.196531355E-1,-6.055197120E-2
3.782878550E0,-3.384725332E0,-9.155336022E-2,-6.116283685E-2
3.785289592E0,-3.379838467E0,-6.528617442E-2,-5.871937796E-2
3.787700582E0,-3.373729706E0,-3.779725730E-2,-5.994110554E-2
3.790111623E0,-3.365788460E0,-9.697478265E-3,-6.055197120E-2
3.792522613E0,-3.357236385E0,1.840230078E-2,-6.177370250E-2
3.794933654E0,-3.345629930E0,4.589121789E-2,-6.177370250E-2
3.797344696E0,-3.333412647E0,7.215840369E-2,-6.116283685E-2
3.799755686E0,-3.321806431E0,9.659299254E-2,-6.177370250E-2
3.802166727E0,-3.305312872E0,1.222493127E-1,-6.116283685E-2
3.804577717E0,-3.288819551E0,1.460730433E-1,-6.238456443E-2
3.806988759E0,-3.271104574E0,1.692859083E-1,-6.299543381E-2
3.809399800E0,-3.250946045E0,1.906661689E-1,-6.421715766E-2
3.811810790E0,-3.230176687E0,2.114355713E-1,-6.482802331E-2
3.814221832E0,-3.208185434E0,2.309832424E-1,-6.604975462E-2
3.816632821E0,-3.186194420E0,2.468657345E-1,-6.604975462E-2
3.819043863E0,-3.160537958E0,2.639699280E-1,-6.666062027E-2
3.821454852E0,-3.134881735E0,2.774089575E-1,-6.666062027E-2
3.823865894E0,-3.107392788E0,2.896262705E-1,-6.727148592E-2
3.826276936E0,-3.079293013E0,3.018435538E-1,-6.666062027E-2
3.828687925E0,-3.049971581E0,3.085630834E-1,-6.849320978E-2
3.831098967E0,-3.018206596E0,3.158934414E-1,-6.910407543E-2
3.833510009E0,-2.988274097E0,3.201695085E-1,-6.849320978E-2
3.835920998E0,-2.955898285E0,3.232238293E-1,-6.849320978E-2
3.838332040E0,-2.923522472E0,3.232238293E-1,-7.032580674E-2
3.840743029E0,-2.886870623E0,3.232238293E-1,-7.093667239E-2
3.843154071E0,-2.850829601E0,3.195586503E-1,-6.971494108E-2
3.845565113E0,-2.815399408E0,3.140608668E-1,-6.849320978E-2
3.847976102E0,-2.778747559E0,3.079521954E-1,-6.910407543E-2
3.850387144E0,-2.740873814E0,2.987892330E-1,-6.971494108E-2
3.852798134E0,-2.702389479E0,2.896262705E-1,-6.910407543E-2
3.855209175E0,-2.664515734E0,2.761872411E-1,-6.727148592E-2
3.857620217E0,-2.623587847E0,2.621373534E-1,-6.788235158E-2
3.860031207E0,-2.584492445E0,2.462548614E-1,-6.666062027E-2
3.862442248E0,-2.542953730E0,2.309832424E-1,-6.543888897E-2
3.864853238E0,-2.502025843E0,2.126573026E-1,-6.421715766E-2
3.867264279E0,-2.460486889E0,1.931096315E-1,-6.299543381E-2
3.869675321E0,-2.419559002E0,1.729510874E-1,-6.177370250E-2
3.872086311E0,-2.376798391E0,1.503490955E-1,-6.116283685E-2
3.874497352E0,-2.335870504E0,1.271362305E-1,-5.871937796E-2
3.876908342E0,-2.292499065E0,1.039233729E-1,-5.688678101E-2
3.879319384E0,-2.249738693E0,8.009964228E-2,-5.627591908E-2
3.881730425E0,-2.207588911E0,5.627591908E-2,-5.505418777E-2
3.884141415E0,-2.164217472E0,3.061959706E-2,-5.199986324E-2
3.886552457E0,-2.122067928E0,4.963276442E-3,-5.016727000E-2
3.888963446E0,-2.079918146E0,-2.130390890E-2,-4.772381112E-2
3.891374488E0,-2.036546707E0,-4.451677203E-2,-4.589121789E-2
3.893785529E0,-1.995618820E0,-7.017309219E-2,-4.283689335E-2
3.896196519E0,-1.952858329E0,-9.460768104E-2,-4.100430012E-2
3.898607561E0,-1.910708666E0,-1.196531355E-1,-3.917170316E-2
3.901018550E0,-1.868559003E0,-1.428660005E-1,-3.611737862E-2
3.903429592E0,-1.827631116E0,-1.673005968E-1,-3.428478539E-2
3.905840582E0,-1.785481334E0,-1.880699992E-1,-3.184132650E-2
3.908251623E0,-1.744553447E0,-2.100611329E-1,-2.878700197E-2
3.910662665E0,-1.705458164E0,-2.314413935E-1,-2.695440874E-2
3.913073654E0,-1.666362762E0,-2.497673333E-1,-2.512181364E-2
3.915484696E0,-1.626045704E0,-2.668715417E-1,-2.206749097E-2
3.917895686E0,-1.586950302E0,-2.839757502E-1,-1.901316643E-2
3.920306727E0,-1.547855020E0,-2.992473841E-1,-1.840230078E-2
3.922717769E0,-1.512424827E0,-3.139081299E-1,-1.534797717E-2
3.925128759E0,-1.475162029E0,-3.261254430E-1,-1.229365356E-2
3.927539800E0,-1.437899351E0,-3.383427262E-1,-9.850194678E-3
3.929950790E0,-1.401858330E0,-3.487274349E-1,-8.628465235E-3
3.932361832E0,-1.366428137E0,-3.548360765E-1,-6.185005885E-3
3.934772873E0,-1.330997944E0,-3.597230017E-1,-4.352411721E-3
3.937183863E0,-1.298011303E0,-3.646099269E-1,-3.130682046E-3
3.939594904E0,-1.266246319E0,-3.682751060E-1,-1.298087649E-3
3.942005894E0,-1.234481335E0,-3.694968224E-1,5.345066893E-4
3.944416936E0,-1.202716351E0,-3.676642478E-1,2.367100911E-3
3.946827977E0,-1.170951366E0,-3.658316433E-1,4.810560029E-3
3.949238967E0,-1.141019106E0,-3.633881807E-1,5.421424750E-3
3.951650009E0,-1.111697555E0,-3.572795391E-1,7.864884101E-3
3.954060998E0,-1.082376003E0,-3.493382931E-1,9.697478265E-3
3.956472040E0,-1.055498004E0,-3.407861888E-1,9.697478265E-3
3.958883082E0,-1.029230833E0,-3.316232264E-1,1.091920771E-2
3.961294071E0,-1.004796147E0,-3.187950552E-1,1.153007243E-2
3.963705113E0,-9.785290360E-1,-3.065777719E-1,1.397353224E-2
3.966116102E0,-9.553161860E-1,-2.919169962E-1,1.519526169E-2
3.968527144E0,-9.327141643E-1,-2.772562504E-1,1.519526169E-2
3.970938186E0,-9.107230306E-1,-2.607629001E-1,1.641699113E-2
3.973349175E0,-8.899536133E-1,-2.430478185E-1,1.702785492E-2
3.975760217E0,-8.685733676E-1,-2.241110206E-1,1.641699113E-2
3.978171207E0,-8.484148383E-1,-2.033416182E-1,1.702785492E-2
3.980582248E0,-8.306997418E-1,-1.844048053E-1,1.763872057E-2
3.982993290E0,-8.142064214E-1,-1.624136716E-1,1.763872057E-2
3.985404279E0,-7.971021533E-1,-1.410334110E-1,1.763872057E-2
3.987815321E0,-7.806088328E-1,-1.190422773E-1,1.763872057E-2
3.990226311E0,-7.671698332E-1,-9.766200930E-2,1.763872057E-2
3.992637352E0,-7.525090575E-1,-7.506000996E-2,1.763872057E-2
3.995048342E0,-7.384591699E-1,-5.184714869E-2,1.886045001E-2
3.997459384E0,-7.268527150E-1,-2.863428742E-2,1.824958436E-2
3.999870425E0,-7.164680362E-1,-7.254019380E-3,1.824958436E-2
4.002281415E0,-7.030289769E-1,1.534797717E-2,1.763872057E-2
4.004692457E0,-6.938660145E-1,3.733910993E-2,1.641699113E-2
4.007103498E0,-6.853139400E-1,6.116283685E-2,1.702785492E-2
4.009514488E0,-6.785944104E-1,8.193223923E-2,1.702785492E-2
4.011925529E0,-6.706531644E-1,1.033125073E-1,1.580612548E-2
4.014336519E0,-6.627119184E-1,1.240819097E-1,1.519526169E-2
4.016747561E0,-6.553815603E-1,1.424078494E-1,1.458439697E-2
4.019158550E0,-6.511055231E-1,1.607337892E-1,1.519526169E-2
4.021569592E0,-6.462185979E-1,1.790597439E-1,1.397353224E-2
4.023980634E0,-6.407207847E-1,1.967748106E-1,1.458439697E-2
4.026391623E0,-6.382773519E-1,2.114355713E-1,1.336266659E-2
4.028802665E0,-6.352230310E-1,2.279289216E-1,1.336266659E-2
4.031213707E0,-6.333904266E-1,2.419788092E-1,1.336266659E-2
4.033624696E0,-6.315578222E-1,2.548069656E-1,1.214093715E-2
4.036035738E0,-6.303361058E-1,2.658025324E-1,1.030834299E-2
4.038446727E0,-6.291143894E-1,2.780198455E-1,1.030834299E-2
4.040857769E0,-6.285035014E-1,2.871828079E-1,1.030834299E-2
4.043268811E0,-6.297252178E-1,2.932914495E-1,9.086613543E-3
4.045679800E0,-6.285035014E-1,3.024544120E-1,8.475748822E-3
4.048090842E0,-6.309469342E-1,3.073413372E-1,8.475748822E-3
4.050501832E0,-6.309469342E-1,3.110065162E-1,7.864884101E-3
4.052912873E0,-6.346121430E-1,3.146717250E-1,7.254019380E-3
4.055323915E0,-6.364447474E-1,3.171151876E-1,4.810560029E-3
4.057734904E0,-6.388881803E-1,3.165042996E-1,5.421424750E-3
4.060145946E0,-6.394990683E-1,3.152825832E-1,5.421424750E-3
4.062556936E0,-6.425533891E-1,3.134499788E-1,4.810560029E-3
4.064967977E0,-6.474403143E-1,3.097847998E-1,3.588830587E-3
4.067379019E0,-6.517163515E-1,3.055087626E-1,4.199695308E-3
4.069790009E0,-6.541598439E-1,2.987892330E-1,4.810560029E-3
4.072201050E0,-6.578249931E-1,2.908479869E-1,2.977965865E-3
4.074612040E0,-6.621010900E-1,2.847393453E-1,2.977965865E-3
4.077023082E0,-6.669879556E-1,2.737437785E-1,2.977965865E-3
4.079434123E0,-6.712640524E-1,2.633590698E-1,2.977965865E-3
4.081845113E0,-6.755400896E-1,2.511417866E-1,2.977965865E-3
4.084256154E0,-6.792052984E-1,2.389244884E-1,2.977965865E-3
4.086667144E0,-6.828704476E-1,2.273180634E-1,2.367100911E-3
4.089078186E0,-6.871465445E-1,2.132681608E-1,2.977965865E-3
4.091489175E0,-6.920334101E-1,1.973856837E-1,2.367100911E-3
4.093900217E0,-6.969203353E-1,1.821140647E-1,5.345066893E-4
4.096311259E0,-7.005855441E-1,1.650098413E-1,1.145371469E-3
4.098722248E0,-7.042507529E-1,1.479056329E-1,1.756236190E-3
4.101133290E0,-7.073050737E-1,1.301905513E-1,1.145371469E-3
4.103544332E0,-7.121919990E-1,1.100320220E-1,2.367100911E-3
4.105955321E0,-7.146354318E-1,9.353867173E-2,1.756236190E-3
4.108366363E0,-7.189114690E-1,7.460185885E-2,1.145371469E-3
4.110777352E0,-7.213549614E-1,5.383246019E-2,1.756236190E-3
4.113188394E0,-7.244092822E-1,3.428478539E-2,2.367100911E-3
4.115599384E0,-7.268527150E-1,1.534797717E-2,1.756236190E-3
4.118010425E0,-7.292962074E-1,-4.199695308E-3,2.367100911E-3
4.120421467E0,-7.317396402E-1,-2.374736778E-2,2.367100911E-3
4.122832457E0,-7.341831326E-1,-4.390590638E-2,2.977965865E-3
4.125243498E0,-7.354048491E-1,-6.345357746E-2,3.588830587E-3
4.127654488E0,-7.360156775E-1,-8.300124854E-2,3.588830587E-3
4.130065529E0,-7.372374535E-1,-1.019380614E-1,3.588830587E-3
4.132476571E0,-7.360156775E-1,-1.190422773E-1,5.421424750E-3
4.134887561E0,-7.366265655E-1,-1.385899484E-1,4.810560029E-3
4.137298602E0,-7.354048491E-1,-1.550832987E-1,5.421424750E-3
4.139709592E0,-7.354048491E-1,-1.709657758E-1,6.032289471E-3
4.142120634E0,-7.323505282E-1,-1.880699992E-1,7.254019380E-3
4.144531675E0,-7.311288118E-1,-2.057850659E-1,6.643154658E-3
4.146942665E0,-7.286853194E-1,-2.204458266E-1,6.032289471E-3
4.149353707E0,-7.256309986E-1,-2.351065874E-1,7.254019380E-3
4.151764696E0,-7.207440734E-1,-2.485456020E-1,9.086613543E-3
4.154175738E0,-7.164680362E-1,-2.619846463E-1,1.153007243E-2
4.156586779E0,-7.115811110E-1,-2.735910714E-1,1.091920771E-2
4.158997769E0,-7.060832977E-1,-2.833648920E-1,1.030834299E-2
4.161408811E0,-6.999746561E-1,-2.937496006E-1,1.153007243E-2
4.163819800E0,-6.926442981E-1,-3.023017049E-1,1.275180187E-2
4.166230842E0,-6.859247684E-1,-3.114646673E-1,1.275180187E-2
4.168641884E0,-6.779835224E-1,-3.181841969E-1,1.275180187E-2
4.171052873E0,-6.688205600E-1,-3.230711222E-1,1.580612548E-2
4.173463915E0,-6.602684855E-1,-3.291797638E-1,1.519526169E-2
4.175874904E0,-6.492729187E-1,-3.316232264E-1,1.519526169E-2
4.178285946E0,-6.382773519E-1,-3.352884054E-1,1.580612548E-2
4.180696988E0,-6.260600686E-1,-3.365101218E-1,1.702785492E-2
4.183107977E0,-6.132318974E-1,-3.358992636E-1,1.641699113E-2
4.185519019E0,-5.997928381E-1,-3.352884054E-1,1.886045001E-2
4.187930009E0,-5.881864429E-1,-3.328449428E-1,1.886045001E-2
4.190341050E0,-5.735256672E-1,-3.291797638E-1,1.947131567E-2
4.192752092E0,-5.564214587E-1,-3.249036968E-1,1.886045001E-2
4.195163082E0,-5.405389667E-1,-3.212385178E-1,2.008217946E-2
4.197574123E0,-5.234347582E-1,-3.145190179E-1,2.191477455E-2
4.199985113E0,-5.038870573E-1,-3.053560257E-1,2.374736778E-2
4.202396154E0,-4.861720204E-1,-2.961930633E-1,2.313650399E-2
4.204807196E0,-4.672352076E-1,-2.864192128E-1,2.252563834E-2
4.207218186E0,-4.458549321E-1,-2.766453922E-1,2.435823344E-2
4.209629227E0,-4.244746566E-1,-2.644280791E-1,2.496909723E-2
4.212040217E0,-4.030944109E-1,-2.515999377E-1,2.496909723E-2
4.214451259E0,-3.804923892E-1,-2.387717664E-1,2.557996288E-2
4.216862300E0,-3.560578227E-1,-2.235001475E-1,2.619082667E-2
4.219273290E0,-3.322340846E-1,-2.088394016E-1,2.741255611E-2
4.221684332E0,-3.071886301E-1,-1.935677826E-1,2.741255611E-2
4.224095321E0,-2.803105712E-1,-1.770744324E-1,2.802342176E-2
4.226506363E0,-2.540434003E-1,-1.593593508E-1,2.741255611E-2
4.228917404E0,-2.253327519E-1,-1.410334110E-1,2.863428742E-2
4.231328394E0,-1.972329617E-1,-1.251509190E-1,2.863428742E-2
4.233739436E0,-1.666897237E-1,-1.062141135E-1,2.924515121E-2
4.236150425E0,-1.373682171E-1,-8.849903196E-2,3.046688065E-2
4.238561467E0,-1.056032479E-1,-6.772962958E-2,3.168861195E-2
4.240972457E0,-7.383827865E-2,-4.940368980E-2,3.168861195E-2
4.243383498E0,-3.962985426E-2,-2.863428742E-2,3.168861195E-2
4.245794540E0,-7.864884101E-3,-1.153007243E-2,3.229947388E-2
4.248205529E0,2.695440874E-2,8.017600514E-3,3.352120519E-2
4.250616571E0,6.238456443E-2,2.695440874E-2,3.413207084E-2
4.253027613E0,9.781472385E-2,4.589121789E-2,3.657552972E-2
4.255438602E0,1.350774765E-1,6.666062027E-2,3.535379842E-2
4.257849644E0,1.735619605E-1,8.315397054E-2,3.596466407E-2
4.260260634E0,2.108247131E-1,1.008690447E-1,3.657552972E-2
4.262671675E0,2.505309284E-1,1.185841262E-1,3.779725730E-2
4.265082717E0,2.896262705E-1,1.356883347E-1,3.962985426E-2
4.267493707E0,3.281107545E-1,1.509599537E-1,3.962985426E-2
4.269904748E0,3.708712757E-1,1.668424457E-1,4.146244749E-2
4.272315738E0,4.124100804E-1,1.802814752E-1,4.207331315E-2
4.274726779E0,4.545597434E-1,1.949422210E-1,4.390590638E-2
4.277137821E0,4.991528690E-1,2.096029818E-1,4.512763396E-2
4.279548811E0,5.413025618E-1,2.218202800E-1,4.818195850E-2
4.281959852E0,5.840631127E-1,2.322049737E-1,4.757109284E-2
4.284370842E0,6.298779249E-1,2.432005405E-1,4.818195850E-2
4.286781884E0,6.769145131E-1,2.523635030E-1,5.123628303E-2
4.289192873E0,7.239511013E-1,2.615264952E-1,5.245801434E-2
4.291603915E0,7.691551447E-1,2.682459950E-1,5.429060757E-2
4.294014957E0,8.168025613E-1,2.725220621E-1,5.673406646E-2
4.296425946E0,8.656717539E-1,2.786307037E-1,5.795579776E-2
4.298836988E0,9.151517749E-1,2.822958827E-1,5.917752534E-2
4.301248029E0,9.627992511E-1,2.835176289E-1,6.162098423E-2
4.303659019E0,1.011057615E0,2.853502035E-1,6.345357746E-2
4.306070061E0,1.061759353E0,2.841284871E-1,6.711876392E-2
4.308481050E0,1.111850262E0,2.829067409E-1,6.772962958E-2
4.310892092E0,1.162551999E0,2.810741663E-1,6.956222653E-2
4.313303082E0,1.213864684E0,2.767980993E-1,7.200568914E-2
4.315714123E0,1.264566422E0,2.713003159E-1,7.506000996E-2
4.318125165E0,1.315879107E0,2.639699280E-1,7.689260691E-2
4.320536154E0,1.367191792E0,2.560287118E-1,7.994692773E-2
4.322947196E0,1.419115186E0,2.474765927E-1,8.300124854E-2
4.325358186E0,1.470427871E0,2.358701676E-1,8.483384550E-2
4.327769227E0,1.522351384E0,2.242637277E-1,8.605557680E-2
4.330180269E0,1.573053122E0,2.126573026E-1,8.972076327E-2
4.332591259E0,1.625587583E0,1.992182732E-1,9.338594973E-2
4.335002300E0,1.676900148E0,1.833357960E-1,9.460768104E-2
4.337413290E0,1.730045438E0,1.680641770E-1,9.766200930E-2
4.339824332E0,1.780136347E0,1.509599537E-1,1.001054645E-1
4.342235373E0,1.831448913E0,1.338557452E-1,1.031597927E-1
4.344646363E0,1.883983374E0,1.161406636E-1,1.049923822E-1
4.347057404E0,1.934685111E0,9.659299254E-2,1.080467105E-1
4.349468394E0,1.984776020E0,7.765618712E-2,1.098793000E-1
4.351879436E0,2.036088705E0,5.749764666E-2,1.123227626E-1
4.354290477E0,2.085568666E0,3.794997558E-2,1.147662178E-1
4.356701467E0,2.133216143E0,1.595884189E-2,1.190422773E-1
4.359112509E0,2.184528828E0,-3.588830587E-3,1.202640012E-1
4.361523498E0,2.232176304E0,-2.435823344E-2,1.214857325E-1
4.363934540E0,2.281656265E0,-4.573849961E-2,1.239291951E-1
4.366345582E0,2.328082085E0,-6.589704007E-2,1.263726503E-1
4.368756571E0,2.374507666E0,-8.727730811E-2,1.282052398E-1
4.371167613E0,2.422155142E0,-1.080467105E-1,1.300378442E-1
4.373578602E0,2.467970133E0,-1.282052398E-1,1.318704337E-1
4.375989644E0,2.511952400E0,-1.471420527E-1,1.324812919E-1
4.378400686E0,2.557156324E0,-1.666897237E-1,1.343138963E-1
4.380811675E0,2.599916935E0,-1.862373948E-1,1.367573589E-1
4.383222717E0,2.642066479E0,-2.033416182E-1,1.367573589E-1
4.385633707E0,2.683605433E0,-2.198349684E-1,1.392008066E-1
4.388044748E0,2.725144148E0,-2.357174456E-1,1.404225379E-1
4.390455790E0,2.764239550E0,-2.522107959E-1,1.398116797E-1
4.392866779E0,2.805778265E0,-2.656498253E-1,1.410334110E-1
4.395277821E0,2.841208458E0,-2.784779668E-1,1.428660005E-1
4.397688811E0,2.879693031E0,-2.906952798E-1,1.428660005E-1
4.400099852E0,2.913901329E0,-3.010799885E-1,1.422551423E-1
4.402510894E0,2.948720694E0,-3.090212345E-1,1.428660005E-1
4.404921884E0,2.981707335E0,-3.175733387E-1,1.434768587E-1
4.407332925E0,3.013472319E0,-3.230711222E-1,1.440877318E-1
4.409743915E0,3.044015646E0,-3.285689056E-1,1.446985900E-1
4.412154957E0,3.074558735E0,-3.310123384E-1,1.428660005E-1
4.414565998E0,3.101436853E0,-3.322340846E-1,1.428660005E-1
4.416976988E0,3.128314972E0,-3.328449428E-1,1.428660005E-1
4.419388029E0,3.152749538E0,-3.322340846E-1,1.410334110E-1
4.421799019E0,3.176573277E0,-3.291797638E-1,1.404225379E-1
4.424210061E0,3.198564291E0,-3.230711222E-1,1.398116797E-1
4.426621102E0,3.219333649E0,-3.175733387E-1,1.398116797E-1
4.429032092E0,3.237659693E0,-3.090212345E-1,1.392008066E-1
4.431443134E0,3.255374670E0,-2.998582423E-1,1.379790753E-1
4.433854123E0,3.271868229E0,-2.900844216E-1,1.361464858E-1
4.436265165E0,3.284696341E0,-2.778671086E-1,1.355356276E-1
4.438676207E0,3.297524452E0,-2.625955045E-1,1.343138963E-1
4.441087196E0,3.308520079E0,-2.479347438E-1,1.337030232E-1
4.443498238E0,3.317682981E0,-2.320522517E-1,1.318704337E-1
4.445909227E0,3.326235056E0,-2.143371850E-1,1.312595755E-1
4.448320269E0,3.331121922E0,-1.960112303E-1,1.300378442E-1
4.450731311E0,3.336009026E0,-1.764635593E-1,1.300378442E-1
4.453142300E0,3.338452339E0,-1.563050300E-1,1.282052398E-1
4.455553342E0,3.337841511E0,-1.355356276E-1,1.269835234E-1
4.457964332E0,3.338452339E0,-1.135444939E-1,1.263726503E-1
4.460375373E0,3.336009026E0,-8.972076327E-2,1.251509190E-1
4.462786415E0,3.331732750E0,-6.711876392E-2,1.239291951E-1
4.465197404E0,3.325624228E0,-4.512763396E-2,1.239291951E-1
4.467608446E0,3.318904638E0,-2.191477455E-2,1.233183295E-1
4.470019436E0,3.310352564E0,6.872228696E-4,1.220965981E-1
4.472430477E0,3.298135281E0,2.267835476E-2,1.208748668E-1
4.474841519E0,3.285917997E0,4.650207981E-2,1.214857325E-1
4.477252509E0,3.271868229E0,6.849320978E-2,1.202640012E-1
4.479663550E0,3.258429050E0,9.170607477E-2,1.196531355E-1
4.482074540E0,3.241935730E0,1.118646115E-1,1.190422773E-1
4.484485582E0,3.222998857E0,1.320231557E-1,1.190422773E-1
4.486896623E0,3.202229500E0,1.515708268E-1,1.184314117E-1
4.489307613E0,3.180849314E0,1.717293561E-1,1.184314117E-1
4.491718654E0,3.159468889E0,1.894444376E-1,1.172096804E-1
4.494129644E0,3.134423494E0,2.065486610E-1,1.165988147E-1
4.496540686E0,3.109378099E0,2.230419964E-1,1.178205460E-1
4.498951727E0,3.084332705E0,2.377027571E-1,1.153770834E-1
4.501362717E0,3.056843758E0,2.499200553E-1,1.153770834E-1
4.503773759E0,3.027522087E0,2.627482116E-1,1.165988147E-1
4.506184748E0,2.997589827E0,2.725220621E-1,1.172096804E-1
4.508595790E0,2.966435671E0,2.804632783E-1,1.153770834E-1
4.511006832E0,2.934670687E0,2.871828079E-1,1.159879491E-1
4.513417821E0,2.901073217E0,2.939023077E-1,1.165988147E-1
4.515828863E0,2.866864681E0,2.963457704E-1,1.159879491E-1
4.518239852E0,2.832656384E0,2.981783748E-1,1.153770834E-1
4.520650894E0,2.797226191E0,2.994000912E-1,1.165988147E-1
4.523061936E0,2.761795998E0,2.981783748E-1,1.159879491E-1
4.525472925E0,2.722700596E0,2.939023077E-1,1.159879491E-1
4.527883967E0,2.686048746E0,2.884045243E-1,1.159879491E-1
4.530294957E0,2.648175240E0,2.810741663E-1,1.153770834E-1
4.532705998E0,2.607858181E0,2.737437785E-1,1.153770834E-1
4.535116988E0,2.569373608E0,2.639699280E-1,1.147662178E-1
4.537528029E0,2.528445721E0,2.517526448E-1,1.153770834E-1
4.539939071E0,2.488739491E0,2.383136153E-1,1.147662178E-1
4.542350061E0,2.448422432E0,2.242637277E-1,1.135444939E-1
4.544761102E0,2.406272650E0,2.089921087E-1,1.135444939E-1
4.547172092E0,2.365955591E0,1.924987584E-1,1.129336283E-1
4.549583134E0,2.325027704E0,1.753945500E-1,1.123227626E-1
4.551994175E0,2.283488989E0,1.546251476E-1,1.111010313E-1
4.554405165E0,2.245004416E0,1.356883347E-1,1.104901657E-1
4.556816207E0,2.203465700E0,1.136972085E-1,1.111010313E-1
4.559227196E0,2.160705090E0,9.292780608E-2,1.104901657E-1
4.561638238E0,2.119777203E0,6.910407543E-2,1.092684343E-1
4.564049279E0,2.078849316E0,4.589121789E-2,1.074358448E-1
4.566460269E0,2.039143085E0,2.328922041E-2,1.062141135E-1
4.568871311E0,2.000047684E0,-5.345066893E-4,1.062141135E-1
4.571282300E0,1.960341454E0,-2.435823344E-2,1.056032479E-1
4.573693342E0,1.921246052E0,-4.757109284E-2,1.043815166E-1
4.576104384E0,1.883372426E0,-7.078395784E-2,1.031597927E-1
4.578515373E0,1.845498800E0,-9.277509153E-2,1.019380614E-1
4.580926415E0,1.809457779E0,-1.153770834E-1,1.001054645E-1
4.583337404E0,1.772195101E0,-1.379790753E-1,9.949459881E-2
4.585748446E0,1.737986684E0,-1.599702090E-1,9.766200930E-2
4.588159488E0,1.703167319E0,-1.801287532E-1,9.644027799E-2
4.590570477E0,1.668348074E0,-2.008981556E-1,9.460768104E-2
4.592981519E0,1.634750485E0,-2.186132371E-1,9.338594973E-2
4.595392509E0,1.602985501E0,-2.369391769E-1,9.155336022E-2
4.597803550E0,1.571831465E0,-2.534325123E-1,8.972076327E-2
4.600214592E0,1.541899085E0,-2.668715417E-1,8.910989761E-2
4.602625582E0,1.511355877E0,-2.815323174E-1,8.788817376E-2
4.605036623E0,1.483256102E0,-2.937496006E-1,8.605557680E-2
4.607447613E0,1.454545379E0,-3.047451675E-1,8.422297984E-2
4.609858654E0,1.428889036E0,-3.139081299E-1,8.239039034E-2
4.612269696E0,1.404454470E0,-3.218493760E-1,7.994692773E-2
4.614680686E0,1.380630732E0,-3.267363012E-1,7.872519642E-2
4.617091727E0,1.357417941E0,-3.310123384E-1,7.811433077E-2
4.619502717E0,1.333594203E0,-3.352884054E-1,7.628174126E-2
4.621913759E0,1.313435674E0,-3.346775472E-1,7.506000996E-2
4.624324800E0,1.293887973E0,-3.352884054E-1,7.383827865E-2
4.626735790E0,1.276172876E0,-3.316232264E-1,7.078395784E-2
4.629146832E0,1.259068727E0,-3.279580176E-1,7.017309219E-2
4.631557821E0,1.243186235E0,-3.218493760E-1,6.834049523E-2
4.633968863E0,1.229136348E0,-3.157407343E-1,6.772962958E-2
4.636379904E0,1.214475513E0,-3.047451675E-1,6.650790572E-2
4.638790894E0,1.202258229E0,-2.955822051E-1,6.467530876E-2
4.641201936E0,1.193706155E0,-2.821431756E-1,6.406444311E-2
4.643612925E0,1.184543133E0,-2.693150043E-1,6.223184988E-2
4.646023967E0,1.174158454E0,-2.546542585E-1,6.039925665E-2
4.648435009E0,1.168660641E0,-2.393826395E-1,5.978839099E-2
4.650845998E0,1.161330342E0,-2.235001475E-1,5.795579776E-2
4.653257040E0,1.158886790E0,-2.051742077E-1,5.734493211E-2
4.655668029E0,1.155221701E0,-1.862373948E-1,5.734493211E-2
4.658079071E0,1.153389096E0,-1.648571342E-1,5.673406646E-2
4.660490113E0,1.152167320E0,-1.459203213E-1,5.429060757E-2
4.662901102E0,1.153389096E0,-1.239291951E-1,5.551233515E-2
4.665312144E0,1.153999925E0,-1.025489271E-1,5.306887627E-2
4.667723134E0,1.157054305E0,-8.239039034E-2,5.306887627E-2
4.670134175E0,1.160719395E0,-5.917752534E-2,5.245801434E-2
4.672545217E0,1.166217208E0,-3.596466407E-2,5.123628303E-2
4.674956207E0,1.171104193E0,-1.580612548E-2,5.062541738E-2
4.677367248E0,1.177823663E0,5.574141163E-3,5.001455545E-2
4.679778238E0,1.187597513E0,2.878700197E-2,5.001455545E-2
4.682189279E0,1.195538759E0,5.016727000E-2,5.123628303E-2
4.684600321E0,1.205312610E0,7.154753804E-2,5.062541738E-2
4.687011311E0,1.216308117E0,9.109520912E-2,5.001455545E-2
4.689422352E0,1.227914572E0,1.094211563E-1,5.062541738E-2
4.691833342E0,1.238910079E0,1.289688200E-1,5.001455545E-2
4.694244384E0,1.252959967E0,1.491273642E-1,5.123628303E-2
4.696655425E0,1.265788198E0,1.668424457E-1,5.184714869E-2
4.699066415E0,1.281670690E0,1.833357960E-1,5.123628303E-2
4.701477457E0,1.296331406E0,1.986074150E-1,5.245801434E-2
4.703888446E0,1.310992122E0,2.126573026E-1,5.306887627E-2
4.706299488E0,1.326263785E0,2.254854590E-1,5.367974192E-2
4.708710529E0,1.343368053E0,2.370918989E-1,5.429060757E-2
4.711121519E0,1.362304807E0,2.486983240E-1,5.367974192E-2
4.713532561E0,1.376965523E0,2.566395700E-1,5.429060757E-2
4.715943550E0,1.395291567E0,2.658025324E-1,5.612320080E-2
4.718354592E0,1.414839149E0,2.713003159E-1,5.856665969E-2
4.720765634E0,1.433776021E0,2.767980993E-1,5.795579776E-2
4.723176623E0,1.452712774E0,2.816850245E-1,5.917752534E-2
4.725587665E0,1.471649647E0,2.847393453E-1,6.039925665E-2
4.727998654E0,1.490586400E0,2.853502035E-1,6.162098423E-2
4.730409696E0,1.509523273E0,2.853502035E-1,6.345357746E-2
4.732820738E0,1.529070854E0,2.829067409E-1,6.467530876E-2
4.735231727E0,1.550451159E0,2.810741663E-1,6.650790572E-2
4.737642769E0,1.568166256E0,2.774089575E-1,6.772962958E-2
4.740053759E0,1.588324785E0,2.713003159E-1,6.834049523E-2
4.742464800E0,1.608483315E0,2.664133906E-1,7.017309219E-2
4.744875842E0,1.626809239E0,2.572504282E-1,7.200568914E-2
4.747286832E0,1.646967769E0,2.480874658E-1,7.444914430E-2
4.749697873E0,1.664682865E0,2.383136153E-1,7.506000996E-2
4.752108863E0,1.684841394E0,2.267071903E-1,7.750347257E-2
4.754519904E0,1.701945662E0,2.151007652E-1,7.750347257E-2
4.756930894E0,1.721493363E0,2.022725940E-1,7.811433077E-2
4.759341936E0,1.739208341E0,1.876118481E-1,7.994692773E-2
4.761752977E0,1.755090833E0,1.735619605E-1,8.239039034E-2
4.764163967E0,1.772195101E0,1.589011997E-1,8.300124854E-2
4.766575009E0,1.790521026E0,1.430187225E-1,8.483384550E-2
4.768985998E0,1.805181742E0,1.253036410E-1,8.605557680E-2
4.771397040E0,1.821675181E0,1.094211563E-1,8.788817376E-2
4.773808082E0,1.836335897E0,9.170607477E-2,8.788817376E-2
4.776219071E0,1.849774957E0,7.399099320E-2,8.972076327E-2
4.778630113E0,1.865046501E0,5.749764666E-2,9.094249457E-2
4.781041102E0,1.877874732E0,3.917170316E-2,9.216422588E-2
4.783452144E0,1.890702844E0,2.084576152E-2,9.277509153E-2
4.785863186E0,1.902920127E0,4.352411721E-3,9.277509153E-2
4.788274175E0,1.912693977E0,-1.458439697E-2,9.399681538E-2
4.790685217E0,1.923078656E0,-3.107774630E-2,9.521854669E-2
4.793096259E0,1.933463335E0,-4.940368980E-2,9.582941234E-2
4.795507248E0,1.941404581E0,-6.772962958E-2,9.582941234E-2
4.797918290E0,1.949345827E0,-8.483384550E-2,9.644027799E-2
4.800329279E0,1.956676245E0,-1.001054645E-1,9.644027799E-2
4.802740321E0,1.961563110E0,-1.172096804E-1,9.582941234E-2
4.805151311E0,1.965839267E0,-1.324812919E-1,9.644027799E-2
4.807562352E0,1.971947908E0,-1.459203213E-1,9.766200930E-2
4.809973394E0,1.975002170E0,-1.593593508E-1,9.766200930E-2
4.812384384E0,1.976223946E0,-1.734092385E-1,9.582941234E-2
4.814795425E0,1.979889154E0,-1.825722158E-1,9.644027799E-2
4.817206467E0,1.978667378E0,-1.947895139E-1,9.705114365E-2
4.819617457E0,1.978056550E0,-2.076176703E-1,9.705114365E-2
4.822028498E0,1.976223946E0,-2.155589163E-1,9.644027799E-2
4.824439488E0,1.974391341E0,-2.247218788E-1,9.644027799E-2
4.826850529E0,1.970726132E0,-2.326631248E-1,9.460768104E-2
4.829261519E0,1.964617491E0,-2.393826395E-1,9.338594973E-2
4.831672561E0,1.959730625E0,-2.448804229E-1,9.216422588E-2
4.834083602E0,1.953621864E0,-2.491564751E-1,9.155336022E-2
4.836494592E0,1.945069790E0,-2.534325123E-1,9.094249457E-2
4.838905634E0,1.936517715E0,-2.558759749E-1,8.910989761E-2
4.841316675E0,1.926743865E0,-2.577085793E-1,8.849903196E-2
4.843727665E0,1.915137410E0,-2.583194375E-1,8.788817376E-2
4.846138707E0,1.903530955E0,-2.564868629E-1,8.605557680E-2
4.848549696E0,1.890092015E0,-2.552651167E-1,8.544471115E-2
4.850960738E0,1.876042128E0,-2.534325123E-1,8.605557680E-2
4.853371727E0,1.858937860E0,-2.497673333E-1,8.300124854E-2
4.855782769E0,1.843055367E0,-2.448804229E-1,8.116865903E-2
4.858193811E0,1.826562047E0,-2.387717664E-1,7.994692773E-2
