"Time (s)","Linear Acceleration x (m/s^2)","Linear Acceleration y (m/s^2)","Linear Acceleration z (m/s^2)"
8.317141500E-2,0.000000000E0,0.000000000E0,0.000000000E0
8.799344600E-2,5.913078785E-3,2.274513245E-3,2.582836151E-2
9.281547700E-2,2.532672882E-2,1.160764694E-2,4.538345337E-2
9.763750900E-2,5.287641287E-2,1.376247406E-2,4.240226746E-2
1.024595400E-1,6.212502718E-2,1.167631149E-2,2.364253998E-2
1.072816230E-1,3.143292665E-2,8.517742157E-3,2.784585953E-2
1.121036540E-1,3.557503223E-2,1.024580002E-2,3.932094574E-2
1.169256860E-1,5.751574039E-2,2.570104599E-2,6.260967255E-2
1.217477170E-1,5.331975222E-2,3.141975403E-2,7.570934296E-2
1.265697480E-1,5.322974920E-2,3.588199615E-2,1.013507843E-1
1.313918320E-1,2.523154020E-2,3.805828094E-2,9.528017044E-2
1.362138630E-1,-2.705752850E-3,4.364109039E-2,5.760383606E-2
1.410358940E-1,-4.756671190E-2,4.346466064E-2,8.953094482E-3
1.458579250E-1,-6.872409582E-2,3.798580170E-2,-2.173566818E-2
1.506799570E-1,-6.451457739E-2,2.727413177E-2,-3.356456757E-2
1.555019880E-1,-1.831412315E-2,-7.556438446E-3,-3.786087036E-2
1.603240710E-1,1.270943880E-2,-4.623031616E-2,-6.660747528E-2
1.651461020E-1,4.679435492E-2,-8.770275116E-2,-9.484624863E-2
1.699681340E-1,8.297228813E-2,-1.026420593E-1,-1.000308990E-1
1.747901650E-1,9.532481432E-2,-1.105613708E-1,-1.083540916E-1
1.796121960E-1,8.961176872E-2,-1.117630005E-1,-1.163020134E-1
1.844342790E-1,8.377742767E-2,-1.281290054E-1,-1.308460236E-1
1.892563110E-1,7.219171524E-2,-1.247377396E-1,-1.185150146E-1
1.940783420E-1,6.527298689E-2,-1.182875633E-1,-6.215333939E-2
1.989003730E-1,6.971091032E-2,-9.964132309E-2,-3.913831711E-2
2.037224040E-1,5.057060719E-2,-6.683778763E-2,-3.319978714E-2
2.085444360E-1,2.470970154E-2,-5.705070496E-2,-2.305364609E-2
2.133665190E-1,-1.373863220E-2,-5.890703201E-2,-2.973175049E-2
2.181885500E-1,-5.290222168E-2,-6.147050858E-2,-5.280017853E-2
2.230105820E-1,-7.568317652E-2,-6.353712082E-2,-5.132198334E-2
2.278326130E-1,-7.229828835E-2,-7.440710068E-2,-2.838325500E-2
2.326546440E-1,-1.108390093E-2,-7.993888855E-2,3.552436829E-4
2.374767270E-1,4.722923040E-2,-8.030891418E-2,-9.298801422E-3
2.422987590E-1,7.020831108E-2,-6.765556335E-2,-9.680747986E-3
2.471207900E-1,5.884736776E-2,-8.999538422E-2,9.418487549E-3
2.519428210E-1,1.744693518E-2,-1.093397141E-1,1.042032242E-2
2.567648520E-1,-6.753921509E-3,-1.327557564E-1,-2.367496490E-2
2.615868840E-1,-9.707570076E-3,-1.241812706E-1,-3.946065903E-2
2.664089670E-1,-4.685401917E-3,-1.218118668E-1,-5.365753174E-2
2.712309980E-1,1.061439514E-3,-1.138443947E-1,-7.446956635E-2
2.760530290E-1,2.925872803E-3,-1.226601601E-1,-9.350538254E-2
2.808750610E-1,3.351151943E-3,-1.221995354E-1,-1.073002815E-1
2.856970920E-1,-7.000863552E-3,-1.091527939E-1,-1.089935303E-1
2.905191230E-1,-1.974713802E-2,-8.736801147E-2,-9.411811829E-2
2.953412070E-1,-2.550059557E-2,-6.631851196E-2,-5.722761154E-2
3.001632380E-1,-3.735202551E-2,-1.440048218E-2,-1.745939255E-2
3.049852690E-1,-3.172188997E-2,2.687025070E-2,9.874820709E-3
3.098073000E-1,-7.814711332E-2,6.132841110E-2,2.499771118E-2
3.146293840E-1,-1.099302173E-1,8.683776855E-2,4.102945328E-2
3.194514150E-1,-1.251960397E-1,8.850383759E-2,3.201580048E-2
3.242734460E-1,-1.582932472E-1,1.020455360E-1,4.882049561E-2
3.290954770E-1,-1.536899209E-1,1.049151421E-1,8.043241501E-2
3.339175090E-1,-1.260563135E-1,9.266853333E-2,9.956359863E-2
3.387395400E-1,-8.158820868E-2,9.251546860E-2,9.948301315E-2
3.435615710E-1,-6.507402658E-2,9.490633011E-2,9.223031998E-2
3.483836540E-1,-4.303961992E-2,8.684206009E-2,8.618688583E-2
3.532056860E-1,-3.666365147E-2,8.845329285E-2,5.432415009E-2
3.580277170E-1,-3.745794296E-2,6.074476242E-2,2.178144455E-2
3.628497480E-1,-4.293853045E-2,4.536151886E-2,-3.849935532E-2
3.676717790E-1,-4.125380516E-2,4.206752777E-2,-5.077648163E-2
3.724938630E-1,-5.606651306E-2,4.937887192E-2,-6.399345398E-2
3.773158940E-1,-8.833211660E-2,7.293319702E-2,-5.452537537E-2
3.821379250E-1,-1.165940166E-1,8.873128891E-2,-1.782655716E-2
3.869599570E-1,-1.055375338E-1,9.924221039E-2,9.207725525E-3
3.917819880E-1,-7.225406170E-2,9.039449692E-2,-5.047321320E-3
3.966040190E-1,-4.524141550E-2,6.953144073E-2,-2.460241318E-2
4.014261020E-1,-4.680806398E-2,5.804920197E-2,-1.286458969E-2
4.062481340E-1,-4.545629025E-3,4.050636292E-2,-3.314495087E-3
4.110701650E-1,5.038410425E-2,5.159378052E-4,-2.895832062E-2
4.158921960E-1,1.072971225E-1,-3.671455383E-2,-4.343223572E-2
4.207142270E-1,1.461441815E-1,-7.945013046E-2,-3.396606445E-2
4.255363110E-1,1.542613208E-1,-1.110548973E-1,-1.981925964E-2
4.303583420E-1,1.698531806E-1,-1.233143806E-1,-1.767826080E-2
4.351803730E-1,1.939705610E-1,-1.199502945E-1,-2.038431168E-2
4.400024040E-1,1.827555895E-1,-1.222767830E-1,-2.801084518E-2
4.448244360E-1,1.768226624E-1,-1.124691963E-1,-1.455926895E-2
4.496464670E-1,1.393195987E-1,-1.035742760E-1,-9.925842285E-3
4.544685500E-1,1.084208190E-1,-7.780838013E-2,-4.598617554E-3
4.592905820E-1,7.093828917E-2,-4.371547699E-2,-1.151752472E-2
4.641126130E-1,5.294269323E-2,-2.378129959E-2,4.858493805E-3
4.689346440E-1,5.878424644E-2,-2.495765686E-3,1.827335358E-2
4.737566750E-1,4.338383675E-2,5.866050720E-3,4.897117615E-4
4.785787070E-1,5.065649748E-2,4.960060120E-3,3.928184509E-3
4.834007900E-1,4.131549597E-2,2.906799316E-2,6.866455078E-5
4.882228210E-1,2.978259325E-2,1.631641388E-2,1.156187057E-2
4.930448520E-1,2.905762196E-2,8.442878723E-3,5.192279816E-3
4.978668840E-1,2.126961946E-2,4.114151001E-3,-2.939558029E-2
5.026889150E-1,3.967481852E-2,-1.094150543E-2,-4.217195511E-2
5.075109460E-1,3.667354584E-2,-2.722501755E-2,-3.685712814E-2
5.123330290E-1,1.008927822E-2,-3.420352936E-3,-3.248691559E-2
5.171550610E-1,-2.093303204E-2,-1.099586487E-2,-8.904933929E-3
5.219770920E-1,-5.291265249E-2,1.193046570E-3,4.169940948E-3
5.267991230E-1,-7.049041986E-2,1.171398163E-2,-2.518177032E-2
5.316211540E-1,-1.081994176E-1,1.590967178E-2,-3.147220612E-2
5.364431860E-1,-1.350463033E-1,4.222917557E-2,-2.083396912E-2
5.412652690E-1,-1.428908706E-1,6.803226471E-2,1.950550079E-2
5.460873000E-1,-1.425660849E-1,7.083177567E-2,3.596735001E-2
5.509093320E-1,-1.080018878E-1,7.106637955E-2,5.715990067E-2
5.557313630E-1,-8.575505018E-2,9.133434296E-2,6.520748138E-2
5.605533940E-1,-6.369143724E-2,8.059501648E-2,6.135892868E-2
5.653754770E-1,-4.301995039E-2,7.472991943E-2,6.582927704E-2
5.701975090E-1,-2.848464251E-2,6.551694870E-2,4.525089264E-2
5.750195400E-1,-3.189355135E-2,7.670593262E-2,1.405715942E-2
5.798415710E-1,-4.833376408E-2,6.552648544E-2,-2.851963043E-3
5.846636020E-1,-4.701000452E-2,5.593204498E-2,-2.462482452E-2
5.894856340E-1,-5.176955462E-2,3.126859665E-2,-1.917743683E-2
5.943077170E-1,-2.111744881E-2,2.954959869E-2,-1.042556763E-2
5.991297480E-1,3.206908703E-3,-8.760929108E-3,-2.085924149E-2
6.039517790E-1,2.719217539E-2,-2.641963959E-2,-4.557371140E-2
6.087738110E-1,2.593773603E-2,-4.612159729E-2,-9.513664246E-2
6.135958420E-1,1.384699345E-2,-5.604982376E-2,-9.340333939E-2
6.184178730E-1,9.977400303E-3,-6.587743759E-2,-6.919670105E-2
6.232399570E-1,7.160305977E-3,-7.685327530E-2,-5.941343307E-2
6.280619880E-1,4.456186295E-2,-7.716083527E-2,-6.031513214E-2
6.328840190E-1,6.134992838E-2,-9.648513794E-2,-5.525922775E-2
6.377060500E-1,4.476374388E-2,-7.897281647E-2,-3.237533569E-2
6.425280820E-1,3.887051344E-2,-7.117891312E-2,-2.149343491E-2
6.473501130E-1,1.517122984E-2,-5.402803421E-2,-9.466171265E-3
6.521721960E-1,1.885241270E-2,-6.311464310E-2,-1.654195786E-2
6.569942270E-1,5.800962448E-3,-5.786371231E-2,-2.003574371E-2
6.618162590E-1,-6.070137024E-3,-3.953504562E-2,-1.408576965E-2
6.666382900E-1,-3.688693047E-3,-2.955961227E-2,-1.173019409E-3
6.714603210E-1,3.188085556E-2,-6.384849548E-4,2.226686478E-2
6.762823520E-1,6.007254124E-2,2.344226837E-2,3.469896317E-2
6.811044360E-1,8.221715689E-2,3.436708450E-2,4.932022095E-2
6.859264670E-1,6.152528524E-2,4.647874832E-2,4.001045227E-2
6.907484980E-1,5.053424835E-2,4.678201675E-2,6.905078888E-3
6.955705290E-1,6.222486496E-2,4.959058762E-2,1.310396194E-2
7.003925610E-1,7.508379221E-2,1.562643051E-2,3.346776962E-2
7.052146440E-1,2.618116140E-2,2.170562744E-3,-1.757287979E-2
7.100366750E-1,-4.378253222E-2,-1.231241226E-2,-3.027582169E-2
7.148587070E-1,-8.251911402E-2,-4.146575928E-3,-4.524993896E-2
7.196807380E-1,-3.455901146E-2,-1.027679443E-2,-4.707765579E-2
7.245027690E-1,-7.031637430E-2,-9.526729584E-3,5.220746994E-2
7.293248000E-1,-1.131678224E-1,-6.813049316E-3,9.763097763E-2
7.341468840E-1,-1.026426554E-1,1.819038391E-2,2.065849304E-2
7.389689150E-1,-1.163423061E-1,4.993057251E-2,-4.249334335E-2
7.437909460E-1,-1.291384101E-1,4.439878464E-2,-1.120901108E-2
7.486129770E-1,-1.373667717E-1,-5.121231079E-4,3.665924072E-2
7.534350090E-1,-1.042439938E-1,6.871700287E-3,2.861309052E-2
7.582570400E-1,-5.735516548E-2,1.038074493E-3,-1.724863052E-2
7.630791230E-1,-2.758872509E-2,4.662036896E-3,-9.269237518E-3
7.679011540E-1,-1.231652498E-2,-1.083469391E-2,2.959442139E-2
7.727231860E-1,2.789974213E-2,-1.437520981E-2,2.784538269E-2
7.775452170E-1,7.396000624E-2,-2.617788315E-2,2.493524551E-2
7.823672480E-1,1.176636517E-1,-5.204534531E-2,4.218578339E-3
7.871892790E-1,1.127310991E-1,-7.282972336E-2,2.573966980E-3
7.920113630E-1,9.283870459E-2,-6.711864471E-2,-9.907245636E-3
7.968333940E-1,9.976211190E-2,-7.189941406E-2,-9.408473969E-3
8.016554250E-1,1.023803353E-1,-7.039451599E-2,-4.001760483E-2
8.064774570E-1,1.032275558E-1,-7.447624207E-2,-6.947278976E-2
8.112994880E-1,1.059068441E-1,-7.461166382E-2,-8.591127396E-2
8.161215190E-1,1.020900607E-1,-7.666587830E-2,-1.061487198E-1
8.209436020E-1,6.685769558E-2,-6.882858276E-2,-1.241588593E-1
8.257656340E-1,5.500650406E-2,-5.596160889E-2,-1.126427650E-1
8.305876650E-1,3.072547913E-2,-4.769229889E-2,-1.014213562E-1
8.354096960E-1,6.291997433E-2,-5.226182938E-2,-1.059365273E-1
8.402317270E-1,9.415528178E-2,-5.424165726E-2,-9.986352921E-2
8.450537590E-1,7.681679726E-2,-5.015325546E-2,-7.612800598E-2
8.498758420E-1,5.744564533E-2,-8.122920990E-3,-4.546213150E-2
8.546978730E-1,2.162283659E-2,2.053308487E-2,-2.693748474E-2
8.595199040E-1,-2.836656570E-2,6.776714325E-2,-1.220703125E-4
8.643419360E-1,-5.924147367E-2,1.096696854E-1,3.137540817E-2
8.691639670E-1,-4.767030478E-2,1.284260750E-1,5.806064606E-2
8.739860500E-1,-5.216532946E-2,1.550359726E-1,6.102848053E-2
8.788080820E-1,-7.742154598E-2,1.573123932E-1,7.970237732E-2
8.836301130E-1,-9.611254930E-2,1.603355408E-1,9.617900848E-2
8.884521440E-1,-1.035586596E-1,1.522030830E-1,1.105041504E-1
8.932741750E-1,-8.677238226E-2,1.330623627E-1,9.891748428E-2
8.980962070E-1,-9.700614214E-2,1.280078888E-1,7.341527939E-2
9.029182900E-1,-1.209673285E-1,1.061310768E-1,3.762340546E-2
9.077403210E-1,-1.336576939E-1,1.032490730E-1,6.968975067E-3
9.125623520E-1,-1.493536830E-1,7.777166367E-2,-6.809234619E-3
9.173843840E-1,-1.465694904E-1,6.189250946E-2,9.307861328E-4
9.222064150E-1,-1.300708652E-1,6.387424469E-2,1.574945450E-2
9.270284460E-1,-1.021983027E-1,7.765054703E-2,3.521537781E-2
9.318505290E-1,-9.498339891E-2,1.067552567E-1,5.804347992E-2
9.366725610E-1,-1.081817746E-1,1.011681557E-1,6.528615952E-2
9.414945920E-1,-1.071408987E-1,1.134223938E-1,4.992151260E-2
9.463166230E-1,-8.587199450E-2,9.595298767E-2,3.703165054E-2
9.511386540E-1,-7.417100668E-2,6.212997437E-2,1.703834534E-2
9.559607380E-1,-6.701183319E-2,3.580904007E-2,1.888751984E-3
9.607827690E-1,-5.125409365E-2,1.325511932E-2,-4.100799561E-5
9.656048000E-1,-6.644964218E-3,-1.923561096E-3,-3.162384033E-3
9.704268320E-1,6.232857704E-3,-2.526140213E-2,-2.402019501E-2
9.752488630E-1,6.844708323E-2,-4.486417770E-2,-2.326631546E-2
9.800708940E-1,1.001550555E-1,-7.030344009E-2,-3.069305420E-2
9.848929770E-1,8.026561141E-2,-9.787702560E-2,-8.428764343E-2
9.897150090E-1,5.900090933E-2,-1.453475952E-1,-9.351491928E-2
9.945370400E-1,8.041363955E-2,-1.912074089E-1,-9.312582016E-2
9.993590710E-1,1.227371097E-1,-2.033810616E-1,-1.224117279E-1
1.004181102E0,1.573614776E-1,-2.117524147E-1,-1.574459076E-1
1.009003134E0,1.736152172E-1,-1.830639839E-1,-1.531634331E-1
1.013825217E0,1.692555547E-1,-1.687140465E-1,-9.796285629E-2
1.018647248E0,1.905586720E-1,-1.757264137E-1,-4.445743561E-2
1.023469279E0,1.790466309E-1,-1.682863235E-1,-3.065252304E-2
1.028291311E0,1.443193257E-1,-1.250572205E-1,-5.632066727E-2
1.033113342E0,6.374543905E-2,-8.897113800E-2,-7.496023178E-2
1.037935373E0,2.765345573E-2,-7.894229889E-2,-6.292343140E-2
1.042757457E0,-3.330862522E-2,-8.290433884E-2,-5.012798309E-2
1.047579488E0,-3.953939676E-2,-5.796098709E-2,-3.071832657E-2
1.052401519E0,-7.234734297E-2,-3.171253204E-2,3.607273102E-3
1.057223550E0,-7.111752033E-2,-1.736259460E-2,4.572963715E-2
1.062045582E0,-8.722233772E-2,2.909183502E-3,7.429361343E-2
1.066867613E0,-1.146669984E-1,5.044460297E-2,5.970621109E-2
1.071689696E0,-1.415941715E-1,7.510614395E-2,5.578660965E-2
1.076511727E0,-1.714413166E-1,6.274175644E-2,7.204389572E-2
1.081333759E0,-1.721805930E-1,6.930351257E-2,1.024875641E-1
1.086155790E0,-1.201590300E-1,7.556962967E-2,1.079368591E-1
1.090977821E0,-8.913850784E-2,6.962299347E-2,7.680463791E-2
1.095799904E0,-5.635577440E-2,6.110525131E-2,5.918598175E-2
1.100621936E0,-5.368506908E-2,5.225038528E-2,4.208183289E-2
1.105443967E0,-3.696244955E-2,5.967521667E-2,5.870580673E-2
1.110265998E0,-2.873504162E-2,5.591058731E-2,4.357481003E-2
1.115088029E0,-7.482051849E-3,4.114532471E-2,-5.503654480E-3
1.119910061E0,1.488465071E-2,4.395198822E-2,-2.892112732E-2
1.124732144E0,6.811666489E-2,6.130695343E-3,-2.815055847E-2
1.129554175E0,1.248324215E-1,1.936292648E-2,-5.738735199E-3
1.134376207E0,1.493116915E-1,2.155303955E-2,2.030658722E-2
1.139198238E0,1.275374293E-1,9.281635284E-3,3.685522079E-2
1.144020269E0,9.296846390E-2,2.661705017E-2,5.104637146E-2
1.148842300E0,4.799139500E-2,5.909395218E-2,7.829952240E-2
1.153664384E0,3.647744656E-2,8.170843124E-2,1.065955162E-1
1.158486415E0,1.658052206E-2,8.864164352E-2,1.026735306E-1
1.163308446E0,-1.638692617E-2,9.553384781E-2,1.082444191E-1
1.168130477E0,-2.329343557E-2,7.392263412E-2,1.030397415E-1
1.172952509E0,-1.021641493E-2,7.385683060E-2,9.547710419E-2
1.177774540E0,5.004346371E-3,5.605316162E-2,6.774568558E-2
1.182596623E0,2.357995510E-2,4.797983170E-2,3.066301346E-2
1.187418654E0,5.747389793E-2,3.660202026E-2,-6.281375885E-3
1.192240686E0,6.284695864E-2,1.232337952E-2,-2.989912033E-2
1.197062717E0,9.106999636E-2,6.110191345E-3,-1.657485962E-2
1.201884748E0,1.327112317E-1,-1.263618469E-4,1.505374908E-3
1.206706779E0,1.331044436E-1,1.858186722E-2,-7.781505585E-3
1.211528863E0,1.032454371E-1,2.649879456E-2,-6.800031662E-2
1.216350894E0,3.615856171E-2,-1.769304276E-2,-1.705393791E-1
1.221172925E0,1.996213198E-2,-6.371021271E-2,-1.881151199E-1
1.225994957E0,5.693495274E-3,-9.022331238E-2,-1.700310707E-1
1.230816988E0,4.796069860E-2,-9.498310089E-2,-1.616997719E-1
1.235639071E0,1.036294699E-1,-6.274127960E-2,-1.618561745E-1
1.240461102E0,1.239942312E-1,-6.732988358E-2,-1.514754295E-1
1.245283134E0,1.317993402E-1,-8.476161957E-2,-9.738636017E-2
1.250105165E0,1.139198840E-1,-9.958124161E-2,-4.379129410E-2
1.254927196E0,8.703410625E-2,-8.445167542E-2,-1.449680328E-2
1.259749227E0,4.747104645E-2,-5.625057220E-2,1.381397247E-3
1.264571311E0,-1.353859901E-3,-2.696704865E-2,1.581382751E-2
1.269393342E0,-5.351305008E-2,-2.028179169E-2,8.581638336E-3
1.274215373E0,-7.605850697E-2,7.839202881E-4,2.370834351E-3
1.279037404E0,-1.417446733E-1,1.233434677E-2,3.138542175E-3
1.283859436E0,-1.826968193E-1,1.915264130E-2,3.814029694E-2
1.288681467E0,-1.909906864E-1,3.546524048E-2,2.288532257E-2
1.293503550E0,-1.763532758E-1,4.814100266E-2,3.135585785E-2
1.298325582E0,-1.163840294E-1,4.990482330E-2,7.776927948E-2
1.303147613E0,-3.860974312E-2,3.362846375E-2,1.037812233E-1
1.307969644E0,4.380649328E-2,2.325248718E-2,9.764194489E-2
1.312791675E0,8.816409111E-2,2.219676971E-2,6.208133698E-2
1.317613759E0,6.989526749E-2,1.383972168E-2,2.576112747E-2
1.322435790E0,2.259975672E-2,1.250171661E-2,-1.016044617E-2
1.327257821E0,-3.700053692E-2,6.246566772E-3,-2.788925171E-2
1.332079852E0,-7.796370983E-2,-1.420974731E-4,-3.706502914E-2
1.336901884E0,-1.051459908E-1,-2.084064484E-2,-4.374313354E-2
1.341723915E0,-1.210219860E-1,-1.772451401E-2,-4.560661316E-2
1.346545998E0,-1.254968643E-1,-1.120996475E-2,-4.974794388E-2
1.351368029E0,-1.161894798E-1,-1.904487610E-2,-1.706218719E-2
1.356190061E0,-5.748802423E-2,-2.333545685E-2,2.252006531E-2
1.361012092E0,-2.194792032E-2,-3.904342651E-3,2.740001678E-2
1.365834123E0,-9.345650673E-3,-4.728794098E-3,2.148675919E-2
1.370656207E0,-3.707510233E-2,2.293157578E-2,2.987194061E-2
1.375478238E0,-7.277232409E-2,4.333448410E-2,3.099727631E-2
1.380300269E0,-9.966552258E-2,6.243085861E-2,4.632520676E-2
1.385122300E0,-1.059290171E-1,7.906103134E-2,5.911350250E-2
1.389944332E0,-1.094170213E-1,8.851480484E-2,5.514240265E-2
1.394766363E0,-1.030011177E-1,9.084939957E-2,2.387571335E-2
1.399588394E0,-9.733033180E-2,8.971405029E-2,1.060771942E-2
1.404410477E0,-6.866848469E-2,5.891561508E-2,3.072214127E-2
1.409232509E0,-6.368458271E-3,5.924606323E-2,-3.156661987E-4
1.414054540E0,5.255657434E-2,3.706359863E-2,-5.717134476E-2
1.418876571E0,6.527709961E-2,4.829549789E-2,-9.334564209E-2
1.423698602E0,2.624565363E-2,6.897306442E-2,-1.244750023E-1
1.428520686E0,-3.592157364E-2,7.522773743E-2,-1.007332802E-1
1.433342717E0,-1.153062582E-1,1.003470421E-1,-1.103429794E-1
1.438164748E0,-2.180570960E-1,1.571984291E-1,-1.186208725E-1
1.442986779E0,-3.003294468E-1,2.265539169E-1,-1.268048286E-1
1.447808811E0,-3.589838147E-1,2.820634842E-1,-5.647039413E-2
1.452630842E0,-3.906807303E-1,3.272228241E-1,3.613328934E-2
1.457452925E0,-3.874761462E-1,3.442435265E-1,9.037590027E-2
1.462274957E0,-4.221309423E-1,3.486704826E-1,1.600689888E-1
1.467096988E0,-4.076907635E-1,3.869347572E-1,1.655454636E-1
1.471919019E0,-3.884654045E-1,3.755493164E-1,2.000317574E-1
1.476741050E0,-3.763101697E-1,3.279943466E-1,2.466702461E-1
1.481563082E0,-3.365884423E-1,3.014941216E-1,2.365894318E-1
1.486385165E0,-1.911270618E-1,2.569656372E-1,1.047821045E-1
1.491207196E0,-6.635868549E-2,1.875400543E-1,1.001601219E-1
1.496029227E0,-1.673903465E-1,6.588554382E-2,2.313966751E-1
1.500851259E0,-1.457954049E-1,-1.494216919E-2,2.054300308E-1
1.505673290E0,-4.635095596E-2,-4.769849777E-2,-2.194929123E-2
1.510495373E0,4.995748401E-2,-9.659242630E-2,-1.586098671E-1
1.515317404E0,1.244033575E-1,-1.781001091E-1,-1.554584503E-1
1.520139436E0,2.190267593E-1,-2.658066750E-1,-1.275815964E-1
1.524961467E0,3.340219259E-1,-3.334636688E-1,-1.357660294E-1
1.529783498E0,4.479748011E-1,-3.952879906E-1,-1.810784340E-1
1.534605582E0,5.149146318E-1,-4.405326843E-1,-2.348370552E-1
1.539427613E0,5.329539776E-1,-4.965319633E-1,-2.413020134E-1
1.544249644E0,5.038025379E-1,-5.168571472E-1,-2.258486748E-1
1.549071675E0,5.026291609E-1,-5.159621239E-1,-2.219629288E-1
1.553893707E0,4.899453819E-1,-4.785161018E-1,-2.403182983E-1
1.558715738E0,4.658972919E-1,-4.439139366E-1,-2.451968193E-1
1.563537821E0,4.209647179E-1,-3.800973892E-1,-1.999406815E-1
1.568359852E0,3.504821062E-1,-3.526825905E-1,-1.285843849E-1
1.573181884E0,2.770004272E-1,-3.247327805E-1,-1.142625809E-1
1.578003915E0,2.063013613E-1,-2.784824371E-1,-9.953212738E-2
1.582825946E0,1.679914594E-1,-2.284145355E-1,-7.362556458E-2
1.587647977E0,1.332745254E-1,-1.640300751E-1,-3.886556625E-2
1.592470061E0,7.702249289E-2,-1.010360718E-1,-3.479003906E-3
1.597292092E0,3.485509753E-2,-7.633256912E-2,-2.942085266E-3
1.602114123E0,-4.799270630E-2,-2.449274063E-2,-2.614450455E-2
1.606936154E0,-1.037780643E-1,2.447891235E-2,-1.228094101E-2
1.611758186E0,-1.528716087E-1,4.419660568E-2,7.423210144E-2
1.616580217E0,-1.609730124E-1,5.247783661E-2,1.345257759E-1
1.621402300E0,-1.058315337E-1,5.765676498E-2,1.380386353E-1
1.626224332E0,-5.200293660E-2,7.167816162E-2,1.148519516E-1
1.631046363E0,-6.636500359E-3,6.461715698E-2,1.329951286E-1
1.635868394E0,5.412426591E-2,5.908584595E-2,2.064661980E-1
1.640690425E0,7.308605313E-2,5.974483490E-2,2.530016899E-1
1.645512509E0,8.838516474E-2,7.014226913E-2,2.478590012E-1
1.650334540E0,6.420803070E-2,8.198451996E-2,2.103457451E-1
1.655156571E0,-1.137042046E-2,6.939411163E-2,1.333594322E-1
1.659978602E0,-1.085519791E-1,5.883836746E-2,9.416913986E-2
1.664800634E0,-1.847237349E-1,6.109666824E-2,9.707117081E-2
1.669622665E0,-2.474757433E-1,9.515285492E-2,7.870244980E-2
1.674444748E0,-3.397958279E-1,1.525979042E-1,4.737520218E-2
1.679266779E0,-3.630860448E-1,2.013421059E-1,5.169296265E-2
1.684088811E0,-3.582894206E-1,1.856355667E-1,1.068344116E-1
1.688910842E0,-3.385151625E-1,1.891646385E-1,1.138172150E-1
1.693732873E0,-3.299070597E-1,1.952424049E-1,6.822061539E-2
1.698554957E0,-3.465238810E-1,2.062573433E-1,5.587625504E-2
1.703376988E0,-3.130974174E-1,2.066154480E-1,8.971023560E-2
1.708199019E0,-2.238346934E-1,1.880350113E-1,1.362018585E-1
1.713021050E0,-1.167014241E-1,1.742835045E-1,1.455698013E-1
1.717843082E0,-1.170635223E-2,1.249518394E-1,1.193647385E-1
1.722665113E0,1.428902149E-2,8.550071716E-2,2.935218811E-2
1.727487196E0,6.195837259E-2,1.313352585E-2,-5.390739441E-2
1.732309227E0,1.052697897E-1,-6.462478638E-2,-9.837961197E-2
1.737131259E0,1.468405724E-1,-1.073141098E-1,-1.697015762E-1
1.741953290E0,1.631527543E-1,-1.269898415E-1,-2.582435608E-1
1.746775321E0,1.366011500E-1,-1.439261436E-1,-3.437786102E-1
1.751597404E0,1.019696593E-1,-1.722908020E-1,-3.884563446E-1
1.756419436E0,1.007474661E-1,-1.894850731E-1,-3.652977943E-1
1.761241467E0,1.006818414E-1,-2.063269615E-1,-3.080382347E-1
1.766063498E0,1.242208481E-1,-2.357892990E-1,-2.360320091E-1
1.770885529E0,1.771590710E-1,-2.338585854E-1,-1.944880486E-1
1.775707561E0,2.236544490E-1,-2.267518044E-1,-1.690583229E-1
1.780529644E0,2.837630510E-1,-2.370142937E-1,-1.430497169E-1
1.785351675E0,2.801480293E-1,-2.479090691E-1,-7.730150223E-2
1.790173707E0,2.250497639E-1,-2.367286682E-1,-6.723022461E-2
1.794995738E0,1.268412769E-1,-2.341384888E-1,-2.147865295E-1
1.799817769E0,5.203354359E-2,-2.433176041E-1,-3.884735107E-1
1.804639800E0,-3.544068336E-2,-2.983746529E-1,-4.826922417E-1
1.809461884E0,-1.101392508E-2,-3.551769257E-1,-4.042406082E-1
1.814283915E0,1.160812378E-1,-3.818531036E-1,-2.469215393E-1
1.819105946E0,3.167549968E-1,-3.500180244E-1,-3.888087273E-1
1.823927977E0,4.138236344E-1,-3.067426682E-1,-1.840329170E-1
1.828750009E0,4.899688363E-1,-3.259310722E-1,-8.727169037E-2
1.833572092E0,4.585022628E-1,-2.172765732E-1,-1.450562477E-1
1.838394123E0,3.579972386E-1,-1.694331169E-1,-1.459946632E-1
1.843216154E0,2.398300171E-1,-2.413768768E-1,-8.805036545E-2
1.848038186E0,1.548144817E-1,-3.739089966E-1,-1.260385513E-1
1.852860217E0,5.489647388E-2,-4.962482452E-1,-3.508033752E-1
1.857682300E0,-2.275989056E-1,-7.172193527E-1,-6.378278732E-1
1.862504332E0,-3.780335784E-1,-1.952565670E0,-4.354877472E-1
1.867326363E0,-3.287647963E-1,-3.977799177E0,1.717196941E0
1.872148394E0,-4.517918825E-1,-4.352294445E0,1.665261269E0
1.876970425E0,-2.784104943E-1,-4.587755203E0,6.639614105E-1
1.881792457E0,-8.073979616E-2,-4.762210846E0,-3.043150902E-1
1.886614488E0,9.212404490E-2,-4.851504803E0,-9.607529640E-1
1.891436571E0,2.007415295E-1,-4.856264114E0,-1.142199039E0
1.896258602E0,2.035617232E-1,-4.803938389E0,-9.693527222E-1
1.901080634E0,2.094238997E-1,-4.720784664E0,-7.820582390E-1
1.905902665E0,1.874538958E-1,-4.646036148E0,-5.792174339E-1
1.910724696E0,1.689081192E-1,-4.586736679E0,-4.049429893E-1
1.915546779E0,1.693598032E-1,-4.520121098E0,-2.697753906E-1
1.920368811E0,1.711368561E-1,-4.487873077E0,-1.555938721E-1
1.925190842E0,1.672994494E-1,-4.448083878E0,-6.217813492E-2
1.930012873E0,1.724210382E-1,-4.425848007E0,5.989074707E-3
1.934834904E0,1.759803891E-1,-4.419958115E0,2.297878265E-2
1.939656936E0,1.961727142E-1,-4.398216248E0,8.302688599E-3
1.944479019E0,1.962286830E-1,-4.419266224E0,-2.210807800E-2
1.949301050E0,1.967473328E-1,-4.416291237E0,-7.624340057E-2
1.954123082E0,2.075842321E-1,-4.428920269E0,-1.524815559E-1
1.958945113E0,1.990882158E-1,-4.454852104E0,-2.433004379E-1
1.963767144E0,1.990698874E-1,-4.450045109E0,-3.113546371E-1
1.968589227E0,2.220514268E-1,-4.455382347E0,-3.837919235E-1
1.973411259E0,2.228478491E-1,-4.454309464E0,-4.388151169E-1
1.978233290E0,2.243638337E-1,-4.433905125E0,-4.463338852E-1
1.983055321E0,2.291893363E-1,-4.407587051E0,-4.168934822E-1
1.987877352E0,2.184073329E-1,-4.376709938E0,-3.539237976E-1
1.992699436E0,2.136095762E-1,-4.335572720E0,-2.369337082E-1
1.997521467E0,1.993639469E-1,-4.293852806E0,-9.211921692E-2
2.002343498E0,2.104591727E-1,-4.245864868E0,1.010189056E-1
2.007165529E0,1.967254430E-1,-4.183423042E0,3.043613434E-1
2.011987561E0,1.869075596E-1,-4.141418934E0,5.121440887E-1
2.016809592E0,1.700830609E-1,-4.081927776E0,7.222051620E-1
2.021631675E0,1.594033837E-1,-4.018406391E0,9.251976013E-1
2.026453707E0,1.438933909E-1,-3.970232487E0,1.152338982E0
2.031275738E0,1.280993223E-1,-3.919749498E0,1.367921829E0
2.036097769E0,1.201328039E-1,-3.850627184E0,1.586466789E0
2.040919800E0,1.053604484E-1,-3.813343525E0,1.806884766E0
2.045741884E0,7.979887724E-2,-3.731875896E0,2.005434990E0
2.050563915E0,7.171845436E-2,-3.650711536E0,2.181005478E0
2.055385946E0,5.314916372E-2,-3.594174623E0,2.339699745E0
2.060207977E0,3.693050146E-2,-3.500513554E0,2.446977615E0
2.065030009E0,4.167091846E-2,-3.435757637E0,2.553068161E0
2.069852040E0,2.277475595E-2,-3.356061220E0,2.631700516E0
2.074674123E0,1.311141253E-2,-3.258086681E0,2.699551582E0
2.079496154E0,-1.150161028E-2,-3.168534994E0,2.749443054E0
2.084318186E0,-3.795027733E-3,-3.062532425E0,2.783685684E0
2.089140217E0,-7.056117058E-3,-2.971439600E0,2.809382439E0
2.093962248E0,-1.561415195E-2,-2.866822004E0,2.825242996E0
2.098784332E0,-2.497458458E-2,-2.766812563E0,2.837125778E0
2.103606363E0,-2.456957102E-2,-2.656014204E0,2.864000320E0
2.108428394E0,-3.603374958E-2,-2.523907661E0,2.891390800E0
2.113250425E0,-2.837431431E-2,-2.423220634E0,2.941851616E0
2.118072457E0,-2.670711279E-2,-2.320507526E0,2.997297287E0
2.122894540E0,-5.482351780E-2,-2.209964752E0,3.065972328E0
2.127716571E0,-6.117784977E-2,-2.101261616E0,3.140587807E0
2.132538602E0,-6.836956739E-2,-1.966987133E0,3.238931656E0
2.137360634E0,-7.611310482E-2,-1.868056297E0,3.331020355E0
2.142182665E0,-7.215851545E-2,-1.737538576E0,3.412013054E0
2.147004696E0,-8.004754782E-2,-1.624423504E0,3.504548073E0
2.151826779E0,-9.692656994E-2,-1.517910600E0,3.596596718E0
2.156648811E0,-8.168584108E-2,-1.408266306E0,3.666612625E0
2.161470842E0,-9.836637974E-2,-1.288294554E0,3.688331604E0
2.166292873E0,-8.298805356E-2,-1.156604052E0,3.690459251E0
2.171114904E0,-8.170786500E-2,-1.040513277E0,3.708792686E0
2.175936988E0,-8.080610633E-2,-9.015648365E-1,3.732500076E0
2.180759019E0,-7.856082916E-2,-7.742065191E-1,3.740032196E0
2.185581050E0,-6.605929136E-2,-6.486189365E-1,3.730183601E0
2.190403082E0,-5.010390282E-2,-5.101054907E-1,3.696972847E0
2.195225113E0,-5.523911119E-2,-3.846852183E-1,3.641607285E0
2.200047144E0,-4.290434718E-2,-2.624749541E-1,3.568871498E0
2.204869227E0,-3.071799874E-2,-1.298765242E-1,3.493092537E0
2.209691259E0,-3.401523829E-2,5.019979551E-3,3.390374184E0
2.214513290E0,-2.279525995E-2,1.353809088E-1,3.272691727E0
2.219335321E0,-1.970711350E-2,2.807238102E-1,3.140067101E0
2.224157352E0,-1.525077224E-2,4.151324928E-1,3.009239197E0
2.228979436E0,-1.794150472E-2,5.522288084E-1,2.879012108E0
2.233801467E0,-3.035357594E-2,6.874676943E-1,2.741039276E0
2.238623498E0,-3.131213784E-2,8.117567301E-1,2.589381218E0
2.243445529E0,-5.457487702E-2,9.374392033E-1,2.481395721E0
2.248267561E0,-5.284050107E-2,1.070818543E0,2.376423836E0
2.253089644E0,-6.720528007E-2,1.185921431E0,2.268519402E0
2.257911675E0,-7.306772470E-2,1.299882889E0,2.172054291E0
2.262733707E0,-8.531430364E-2,1.427262783E0,2.077486038E0
2.267555738E0,-9.015619755E-2,1.549270630E0,1.999179840E0
2.272377769E0,-8.819735050E-2,1.674592257E0,1.927598000E0
2.277199852E0,-1.086657941E-1,1.791500211E0,1.863965988E0
2.282021884E0,-1.318241358E-1,1.887050390E0,1.803539276E0
2.286843915E0,-1.401455402E-1,1.993735790E0,1.727279663E0
2.291665946E0,-1.580548286E-1,2.097401142E0,1.677071571E0
2.296487977E0,-1.644448638E-1,2.181447983E0,1.618317604E0
2.301310061E0,-1.536130309E-1,2.290173054E0,1.551128387E0
2.306132092E0,-1.689184904E-1,2.355547190E0,1.475621223E0
2.310954123E0,-1.710706353E-1,2.433813572E0,1.415809631E0
2.315776154E0,-1.733592153E-1,2.516483784E0,1.346697807E0
2.320598186E0,-1.829909086E-1,2.592852116E0,1.272034645E0
2.325420217E0,-1.807227731E-1,2.660394907E0,1.211073875E0
2.330242248E0,-1.820322275E-1,2.714262962E0,1.155578613E0
2.335064332E0,-1.759036183E-1,2.759076595E0,1.108076096E0
2.339886363E0,-1.811575890E-1,2.826988220E0,1.073494911E0
2.344708394E0,-1.783611774E-1,2.877090454E0,1.057917595E0
2.349530425E0,-1.778564453E-1,2.925928593E0,1.061452866E0
2.354352457E0,-1.577948332E-1,2.993546724E0,1.077032089E0
2.359174540E0,-1.511588097E-1,3.035492420E0,1.113116264E0
2.363996571E0,-1.490812898E-1,3.105196953E0,1.153043747E0
2.368818602E0,-1.474275887E-1,3.137831211E0,1.218383789E0
2.373640634E0,-1.601292491E-1,3.180943012E0,1.285275459E0
2.378462665E0,-1.483821571E-1,3.229320526E0,1.388356209E0
2.383284748E0,-1.428546011E-1,3.268330097E0,1.483404160E0
2.388106779E0,-1.454840153E-1,3.327453852E0,1.568022728E0
2.392928811E0,-1.522638351E-1,3.376397371E0,1.654118538E0
2.397750842E0,-1.544641554E-1,3.414782047E0,1.753547668E0
2.402572873E0,-1.638009995E-1,3.451761484E0,1.825569153E0
2.407394957E0,-1.512650996E-1,3.494169950E0,1.914306641E0
2.412216988E0,-1.490417123E-1,3.540419579E0,1.986143112E0
2.417039019E0,-1.700974554E-1,3.591231585E0,2.048062325E0
2.421861050E0,-1.750497222E-1,3.636753082E0,2.099919319E0
2.426683082E0,-1.782387793E-1,3.687360764E0,2.146282196E0
2.431505165E0,-1.916792393E-1,3.733179569E0,2.202465057E0
2.436327196E0,-1.987458766E-1,3.786954880E0,2.251450539E0
2.441149227E0,-1.948999465E-1,3.857972622E0,2.293022156E0
2.445971259E0,-1.971193552E-1,3.912472963E0,2.326921463E0
2.450793290E0,-2.032002211E-1,3.970582247E0,2.391128540E0
2.455615321E0,-2.158496678E-1,4.020069122E0,2.447068214E0
2.460437404E0,-2.305044681E-1,4.075034142E0,2.495651245E0
2.465259436E0,-2.439608127E-1,4.149718285E0,2.558167458E0
2.470081467E0,-2.434126437E-1,4.207983971E0,2.634240150E0
2.474903498E0,-2.614120245E-1,4.273639202E0,2.691346169E0
2.479725529E0,-2.623702884E-1,4.340497971E0,2.751879692E0
2.484547613E0,-2.634171844E-1,4.396552086E0,2.807224274E0
2.489369644E0,-2.707707286E-1,4.478744507E0,2.859510422E0
2.494191675E0,-3.002218306E-1,4.535572052E0,2.920392990E0
2.499013707E0,-2.970251143E-1,4.589763641E0,2.949043274E0
2.503835738E0,-2.913122773E-1,4.637634277E0,2.981059074E0
2.508657769E0,-3.143589497E-1,4.695906162E0,2.988762379E0
2.513479852E0,-3.041402698E-1,4.763379097E0,2.988729000E0
2.518301884E0,-3.062485754E-1,4.822051048E0,2.993865967E0
2.523123915E0,-3.148126900E-1,4.861305714E0,2.964671135E0
2.527945946E0,-3.155837357E-1,4.907446384E0,2.916564465E0
2.532767977E0,-3.120945096E-1,4.956851006E0,2.881657600E0
2.537590061E0,-3.306930363E-1,5.019176483E0,2.831216335E0
2.542412092E0,-3.295685053E-1,5.062193394E0,2.785482407E0
2.547234123E0,-3.087212145E-1,5.100319386E0,2.703786850E0
2.552056154E0,-3.086553216E-1,5.127683640E0,2.644701958E0
2.556878186E0,-2.922961116E-1,5.170551777E0,2.586593151E0
2.561700269E0,-2.954754531E-1,5.199216843E0,2.510449886E0
2.566522300E0,-3.082865477E-1,5.208875179E0,2.461599827E0
2.571344332E0,-2.984895706E-1,5.247471809E0,2.416205406E0
2.576166363E0,-2.862650454E-1,5.263639450E0,2.351593018E0
2.580988394E0,-2.797942162E-1,5.264626503E0,2.301271915E0
2.585810425E0,-2.895919085E-1,5.264889717E0,2.266513348E0
2.590632509E0,-3.023980260E-1,5.279947758E0,2.222229481E0
2.595454540E0,-3.036757410E-1,5.277585983E0,2.190022469E0
2.600276571E0,-2.847920656E-1,5.274638653E0,2.137745857E0
2.605098602E0,-2.803186774E-1,5.254477978E0,2.115721703E0
2.609920634E0,-2.875390053E-1,5.238638401E0,2.072620869E0
2.614742717E0,-2.776018679E-1,5.214044571E0,2.038461685E0
2.619564748E0,-2.766034007E-1,5.189139366E0,1.993062496E0
2.624386779E0,-2.830644846E-1,5.179545403E0,1.928249836E0
2.629208811E0,-2.705099881E-1,5.169748306E0,1.871642113E0
2.634030842E0,-2.591196001E-1,5.141988277E0,1.791193008E0
2.638852873E0,-2.630085647E-1,5.115442753E0,1.710954189E0
2.643674957E0,-2.545166016E-1,5.099814415E0,1.634718418E0
2.648496988E0,-2.502366006E-1,5.058184147E0,1.544753075E0
2.653319019E0,-2.429406792E-1,5.044469833E0,1.456801414E0
2.658141050E0,-2.287855297E-1,4.999022007E0,1.360286713E0
2.662963082E0,-2.340768576E-1,4.979332924E0,1.250628471E0
2.667785165E0,-2.192979604E-1,4.940152645E0,1.155531883E0
2.672607196E0,-2.083707452E-1,4.906704903E0,1.072747231E0
2.677429227E0,-2.155442834E-1,4.869681835E0,9.869899750E-1
2.682251259E0,-2.038429379E-1,4.847057343E0,9.055480957E-1
2.687073290E0,-2.044040859E-1,4.817504883E0,8.262329102E-1
2.691895373E0,-1.874960959E-1,4.778820992E0,7.599725723E-1
2.696717404E0,-1.794622093E-1,4.728815079E0,7.093057632E-1
2.701539436E0,-1.804416776E-1,4.696338177E0,6.540708542E-1
2.706361467E0,-1.810420305E-1,4.655224800E0,6.147098541E-1
2.711183498E0,-1.731579304E-1,4.612885952E0,5.770454407E-1
2.716005582E0,-1.641736180E-1,4.568354130E0,5.531749725E-1
2.720827613E0,-1.519035995E-1,4.532519341E0,5.204868317E-1
2.725649644E0,-1.700793207E-1,4.492476463E0,5.054168701E-1
2.730471675E0,-1.783515960E-1,4.467461586E0,4.781455994E-1
2.735293707E0,-1.591253579E-1,4.415902138E0,4.495697021E-1
2.740115738E0,-1.772330850E-1,4.378608704E0,4.257230759E-1
2.744937821E0,-1.744061708E-1,4.323543072E0,4.090747833E-1
2.749759852E0,-1.736489832E-1,4.279588699E0,3.769769669E-1
2.754581884E0,-1.812845170E-1,4.236127853E0,3.569498062E-1
2.759403915E0,-1.748377085E-1,4.205346584E0,3.227596283E-1
2.764225998E0,-1.641475260E-1,4.147927284E0,3.030881882E-1
2.769048029E0,-1.864791214E-1,4.092765808E0,2.883777618E-1
2.773870061E0,-1.905682087E-1,4.063831329E0,2.642621994E-1
2.778692092E0,-1.970434785E-1,4.015973091E0,2.606630325E-1
2.783514123E0,-2.035105526E-1,3.963583708E0,2.691335678E-1
2.788336154E0,-2.005522549E-1,3.906813860E0,2.538156509E-1
2.793158238E0,-2.145366669E-1,3.848165989E0,2.684726715E-1
2.797980269E0,-2.298419476E-1,3.820010662E0,2.927389145E-1
2.802802300E0,-2.296943367E-1,3.754185677E0,3.157835007E-1
2.807624332E0,-2.224236727E-1,3.702310085E0,3.650951385E-1
2.812446363E0,-2.353512049E-1,3.647660732E0,4.167051315E-1
2.817268446E0,-2.240761518E-1,3.580651283E0,4.801101685E-1
2.822090477E0,-2.302445471E-1,3.515709400E0,5.397491455E-1
2.826912509E0,-2.296435237E-1,3.450431347E0,6.218662262E-1
2.831734540E0,-2.338692844E-1,3.378791332E0,7.156267166E-1
2.836556571E0,-2.294565737E-1,3.316327095E0,8.150110245E-1
2.841378602E0,-2.388052344E-1,3.258173466E0,9.139862061E-1
2.846200686E0,-2.376242876E-1,3.179241896E0,1.024468422E0
2.851022717E0,-2.386088222E-1,3.093741417E0,1.129650116E0
2.855844748E0,-2.366122007E-1,3.035062790E0,1.236664772E0
2.860666779E0,-2.252898812E-1,2.939698458E0,1.354994774E0
2.865488811E0,-2.150277048E-1,2.867238998E0,1.476190567E0
2.870310894E0,-2.054070979E-1,2.756654263E0,1.591847420E0
2.875132925E0,-1.937663853E-1,2.661462545E0,1.711438179E0
2.879954957E0,-1.893260181E-1,2.581499338E0,1.820576668E0
2.884776988E0,-1.822973937E-1,2.467546225E0,1.927577972E0
2.889599019E0,-1.617550999E-1,2.358861923E0,2.051498413E0
2.894421102E0,-1.598191112E-1,2.264751911E0,2.161203384E0
2.899243134E0,-1.476814151E-1,2.135994673E0,2.281750679E0
2.904065165E0,-1.492492110E-1,2.028569460E0,2.398754120E0
2.908887196E0,-1.621721834E-1,1.920569420E0,2.513354301E0
2.913709279E0,-1.518297046E-1,1.790319562E0,2.639874458E0
2.918531311E0,-1.531078815E-1,1.676926255E0,2.769893646E0
2.923353342E0,-1.434412748E-1,1.558713198E0,2.893853188E0
2.928175373E0,-1.506447047E-1,1.438862681E0,3.029644012E0
2.932997404E0,-1.464237273E-1,1.301657081E0,3.147388458E0
2.937819436E0,-1.525803208E-1,1.168430328E0,3.263849258E0
2.942641519E0,-1.802437603E-1,1.055510640E0,3.399314880E0
2.947463550E0,-1.808918715E-1,9.017260075E-1,3.532262802E0
2.952285582E0,-1.729030013E-1,7.846112251E-1,3.638832092E0
2.957107613E0,-1.913506985E-1,6.512466669E-1,3.754907608E0
2.961929644E0,-1.961239278E-1,5.349181890E-1,3.855416298E0
2.966751675E0,-1.972043514E-1,3.779799938E-1,3.928466797E0
2.971573759E0,-2.165061831E-1,2.556313872E-1,3.996840477E0
2.976395790E0,-2.150438726E-1,1.020100117E-1,4.057016373E0
2.981217821E0,-2.145519853E-1,-2.449238300E-2,4.101904869E0
2.986039852E0,-2.298009992E-1,-1.765857935E-1,4.139960289E0
2.990861884E0,-2.239837646E-1,-3.220461011E-1,4.152169228E0
2.995683967E0,-2.377927303E-1,-4.562293887E-1,4.145850182E0
3.000505998E0,-2.403740883E-1,-5.982244015E-1,4.135477066E0
3.005328029E0,-2.293183804E-1,-7.457587719E-1,4.114022255E0
3.010150061E0,-2.477192283E-1,-8.903461695E-1,4.095979691E0
3.014972092E0,-2.427970767E-1,-1.028399825E0,4.055222511E0
3.019794175E0,-2.335078120E-1,-1.155071259E0,4.014650345E0
3.024616207E0,-2.292916179E-1,-1.300072432E0,3.973234177E0
3.029438238E0,-2.142361403E-1,-1.425088763E0,3.920405388E0
3.034260269E0,-2.274578214E-1,-1.563458681E0,3.868302345E0
3.039082300E0,-2.027888298E-1,-1.692259312E0,3.809936523E0
3.043904384E0,-1.841344237E-1,-1.819632292E0,3.762199402E0
3.048726415E0,-1.769483685E-1,-1.947748661E0,3.700156212E0
3.053548446E0,-1.712427437E-1,-2.076348782E0,3.633526802E0
3.058370477E0,-1.521917284E-1,-2.196775913E0,3.582754135E0
3.063192509E0,-1.420521140E-1,-2.314747810E0,3.501346588E0
3.068014540E0,-1.212495565E-1,-2.410766363E0,3.414518356E0
3.072836623E0,-1.061297953E-1,-2.513292789E0,3.321168900E0
3.077658654E0,-1.023088396E-1,-2.619475603E0,3.207005501E0
3.082480686E0,-8.438563347E-2,-2.711030245E0,3.123446465E0
3.087302717E0,-5.336126685E-2,-2.811435461E0,3.003533363E0
3.092124800E0,-2.570670843E-2,-2.894055843E0,2.880753517E0
3.096946832E0,-7.309913635E-3,-2.982435226E0,2.757449150E0
3.101768863E0,7.880240679E-3,-3.049889088E0,2.631155014E0
3.106590894E0,1.389247179E-2,-3.113921165E0,2.507729530E0
3.111412925E0,4.166585207E-2,-3.193336487E0,2.371531487E0
3.116234957E0,5.645138025E-2,-3.249521971E0,2.229612350E0
3.121057040E0,7.118305564E-2,-3.306007385E0,2.110467911E0
3.125879071E0,8.799171448E-2,-3.364830971E0,1.992372513E0
3.130701102E0,9.820950031E-2,-3.430459261E0,1.887072563E0
3.135523134E0,9.320682287E-2,-3.490679741E0,1.784790039E0
3.140345165E0,1.036421955E-1,-3.534456253E0,1.681698799E0
3.145167248E0,1.029123068E-1,-3.577008963E0,1.595443726E0
3.149989279E0,1.216340065E-1,-3.609732628E0,1.519762039E0
3.154811311E0,1.272161007E-1,-3.658745527E0,1.437663078E0
3.159633342E0,1.145175993E-1,-3.690361500E0,1.352458954E0
3.164455373E0,1.119087338E-1,-3.733126402E0,1.273447037E0
3.169277404E0,1.166856885E-1,-3.758173466E0,1.214660645E0
3.174099488E0,1.010177732E-1,-3.790496588E0,1.135178566E0
3.178921519E0,1.004741192E-1,-3.834813356E0,1.064657211E0
3.183743550E0,1.113179326E-1,-3.868239403E0,1.005170822E0
3.188565582E0,1.069670916E-1,-3.906342268E0,9.290199280E-1
3.193387613E0,1.017339826E-1,-3.945420265E0,8.598546982E-1
3.198209696E0,9.779638052E-2,-3.989144325E0,7.772016525E-1
3.203031727E0,1.011615396E-1,-4.026725292E0,6.940164566E-1
3.207853759E0,9.980672598E-2,-4.068882942E0,6.136713028E-1
3.212675790E0,9.380275011E-2,-4.093066692E0,5.396728516E-1
3.217497821E0,1.094683409E-1,-4.153013229E0,4.610681534E-1
3.222319904E0,1.134092808E-1,-4.173511505E0,3.885345459E-1
3.227141936E0,1.141272187E-1,-4.235888958E0,3.554029465E-1
3.231963967E0,1.237695217E-1,-4.276926041E0,2.923116684E-1
3.236785998E0,1.256678104E-1,-4.302639961E0,2.338418961E-1
3.241608029E0,1.058066487E-1,-4.345451355E0,1.955289841E-1
3.246430113E0,1.288948655E-1,-4.381470680E0,1.521854401E-1
3.251252144E0,1.234539747E-1,-4.420465469E0,1.170310974E-1
3.256074175E0,1.171922386E-1,-4.458840370E0,9.595108032E-2
3.260896207E0,1.426492333E-1,-4.492008209E0,7.109355927E-2
3.265718238E0,1.534088254E-1,-4.528435707E0,6.995964050E-2
3.270540269E0,1.449933648E-1,-4.563415051E0,4.833030701E-2
3.275362352E0,1.546944976E-1,-4.610258102E0,4.455471039E-2
3.280184384E0,1.600191891E-1,-4.635614872E0,3.835868835E-2
3.285006415E0,1.635987759E-1,-4.652700901E0,2.975749969E-2
3.289828446E0,1.918959320E-1,-4.710700989E0,1.529598236E-2
3.294650529E0,1.877453923E-1,-4.739165306E0,2.132320404E-2
3.299472561E0,1.908151805E-1,-4.765777111E0,-1.180458069E-2
3.304294592E0,1.904915571E-1,-4.813337326E0,-1.825523376E-2
3.309116623E0,1.953335553E-1,-4.848546982E0,-3.257369995E-2
3.313938654E0,1.802484691E-1,-4.872728348E0,-4.750251770E-2
3.318760686E0,1.968014538E-1,-4.915917397E0,-6.171989441E-2
3.323582769E0,2.222677767E-1,-4.938799858E0,-8.467674255E-2
3.328404800E0,2.029069364E-1,-4.951107979E0,-9.473896027E-2
3.333226832E0,2.105126381E-1,-4.984030247E0,-1.193046570E-1
3.338048863E0,2.247295380E-1,-5.003004074E0,-1.021089554E-1
3.342870894E0,2.239457667E-1,-5.047648430E0,-1.219196320E-1
3.347692977E0,2.056740373E-1,-5.046374321E0,-1.212339401E-1
3.352515009E0,2.177681625E-1,-5.069844246E0,-1.250724792E-1
3.357337040E0,2.086182088E-1,-5.085905552E0,-1.380939484E-1
3.362159071E0,2.020449936E-1,-5.101850033E0,-1.195735931E-1
3.366981102E0,2.193679214E-1,-5.115440369E0,-1.136465073E-1
3.371803186E0,2.006298006E-1,-5.118398190E0,-8.438587189E-2
3.376625217E0,2.139038444E-1,-5.110848427E0,-6.160736084E-2
3.381447248E0,2.182682157E-1,-5.126415730E0,-4.877376556E-2
3.386269279E0,2.111068070E-1,-5.141242504E0,-1.476669312E-2
3.391091311E0,1.923042238E-1,-5.131538391E0,1.058864594E-2
3.395913342E0,1.902742982E-1,-5.110601425E0,4.768657684E-2
3.400735425E0,1.917004883E-1,-5.109590530E0,7.386112213E-2
3.405557457E0,1.926916838E-1,-5.095077991E0,9.272956848E-2
3.410379488E0,1.799420416E-1,-5.098276615E0,1.366357803E-1
3.415201519E0,1.843206882E-1,-5.084634304E0,1.590108871E-1
3.420023550E0,1.984241009E-1,-5.067321301E0,1.873493195E-1
3.424845634E0,1.826512814E-1,-5.060773373E0,2.145175934E-1
3.429667665E0,1.620185375E-1,-5.044767380E0,2.429580688E-1
3.434489696E0,1.721177101E-1,-5.004958153E0,2.642650604E-1
3.439311727E0,1.626794338E-1,-4.996459484E0,2.785158157E-1
3.444133759E0,1.527009606E-1,-4.961920738E0,3.060369492E-1
3.448955842E0,1.504545808E-1,-4.944368362E0,3.193063736E-1
3.453777873E0,1.582720280E-1,-4.927149773E0,3.398990631E-1
3.458599904E0,1.725530326E-1,-4.891153336E0,3.522710800E-1
3.463421936E0,1.586174071E-1,-4.865066051E0,3.743391037E-1
3.468243967E0,1.416752338E-1,-4.830991268E0,3.989515305E-1
3.473066050E0,1.348566413E-1,-4.778180599E0,4.249010086E-1
3.477888082E0,1.346598864E-1,-4.754410744E0,4.557533264E-1
3.482710113E0,1.364656389E-1,-4.722645760E0,4.879589081E-1
3.487532144E0,1.427331567E-1,-4.672042370E0,5.226573944E-1
3.492354175E0,1.284944117E-1,-4.628875256E0,5.562543869E-1
3.497176259E0,1.191308796E-1,-4.577662945E0,5.911931992E-1
3.501998290E0,1.159797907E-1,-4.530214310E0,6.333789825E-1
3.506820321E0,1.097076535E-1,-4.488873959E0,6.732387543E-1
3.511642352E0,1.112985909E-1,-4.416520596E0,7.083625793E-1
3.516464384E0,1.019056439E-1,-4.377585888E0,7.446823120E-1
3.521286467E0,9.972038865E-2,-4.315830231E0,7.702465057E-1
3.526108498E0,1.145295501E-1,-4.262269497E0,8.017683029E-1
3.530930529E0,1.071790755E-1,-4.195244789E0,8.152866364E-1
3.535752561E0,1.030218601E-1,-4.136165142E0,8.466243744E-1
3.540574592E0,1.130362153E-1,-4.065805435E0,8.515167236E-1
3.545396623E0,1.052243114E-1,-4.016347885E0,8.729772568E-1
3.550218707E0,1.108984947E-1,-3.944566250E0,8.905925751E-1
3.555040738E0,1.110775769E-1,-3.870645046E0,8.971347809E-1
3.559862769E0,1.130860746E-1,-3.795660973E0,9.069099426E-1
3.564684800E0,1.111161709E-1,-3.727880955E0,9.043550491E-1
3.569506832E0,1.124648154E-1,-3.639610529E0,9.168825150E-1
3.574328915E0,1.315042078E-1,-3.560608625E0,9.145593643E-1
3.579150946E0,1.120718420E-1,-3.494246244E0,9.331769943E-1
3.583972977E0,1.151463389E-1,-3.399699688E0,9.439725876E-1
3.588795009E0,1.048545539E-1,-3.316396713E0,9.648971558E-1
3.593617040E0,1.216726303E-1,-3.228526592E0,9.767293930E-1
3.598439123E0,1.093447506E-1,-3.153843880E0,1.003342628E0
3.603261154E0,9.164148569E-2,-3.068341017E0,1.018431664E0
3.608083186E0,7.549563050E-2,-2.982571363E0,1.056610107E0
3.612905217E0,7.505682111E-2,-2.885639191E0,1.093943596E0
3.617727248E0,7.087945938E-2,-2.801248312E0,1.124422073E0
3.622549332E0,6.745144725E-2,-2.706551313E0,1.165982246E0
3.627371363E0,5.853360891E-2,-2.626564264E0,1.185180664E0
3.632193394E0,5.812415481E-2,-2.519260406E0,1.227435112E0
3.637015425E0,5.162590742E-2,-2.427552700E0,1.253309250E0
3.641837457E0,3.856015205E-2,-2.344174385E0,1.279585838E0
3.646659540E0,2.586519718E-2,-2.255787849E0,1.318226814E0
3.651481571E0,4.862427711E-3,-2.164748192E0,1.350169182E0
3.656303602E0,-8.491873741E-4,-2.080532551E0,1.381457329E0
3.661125634E0,-1.667398214E-2,-1.995847464E0,1.406172752E0
3.665947665E0,-1.776266098E-2,-1.928615332E0,1.442353249E0
3.670769748E0,-1.981407404E-2,-1.829808474E0,1.469784737E0
3.675591779E0,-2.547580004E-2,-1.735245943E0,1.492156982E0
3.680413811E0,-3.600859642E-2,-1.672471404E0,1.532330513E0
3.685235842E0,-4.188853502E-2,-1.578032851E0,1.572478294E0
3.690057873E0,-4.319393635E-2,-1.507054329E0,1.606804848E0
3.694879957E0,-4.707103968E-2,-1.429636478E0,1.656975746E0
3.699701988E0,-4.976427555E-2,-1.345928907E0,1.718395233E0
3.704524019E0,-3.689050674E-2,-1.257147312E0,1.775674820E0
3.709346050E0,-4.399871826E-2,-1.185007811E0,1.826650620E0
3.714168082E0,-6.494319439E-2,-1.115228057E0,1.881068230E0
3.718990113E0,-4.436236620E-2,-1.030105472E0,1.964226723E0
3.723812196E0,-3.949069977E-2,-9.464899898E-1,2.047581673E0
3.728634227E0,-3.074026108E-2,-8.753874898E-1,2.118195534E0
3.733456259E0,-4.160934687E-2,-7.811185122E-1,2.203739166E0
3.738278290E0,-4.309245944E-2,-7.105878592E-1,2.290019989E0
3.743100321E0,-2.875301242E-2,-6.269726753E-1,2.377197266E0
3.747922404E0,-2.811628580E-2,-5.437181592E-1,2.473767281E0
3.752744436E0,-2.882906795E-2,-4.801759720E-1,2.547574043E0
3.757566467E0,-3.534016013E-2,-4.032590985E-1,2.620258331E0
3.762388498E0,-3.525826335E-2,-3.181019723E-1,2.713413239E0
3.767210582E0,-4.400131106E-2,-2.512874603E-1,2.798382759E0
3.772032613E0,-3.131440282E-2,-1.636666656E-1,2.883585930E0
3.776854644E0,-2.223819494E-2,-7.952307165E-2,2.954693794E0
3.781676675E0,-4.525262117E-2,1.991981268E-2,3.032035828E0
3.786498707E0,-6.092467904E-2,1.032252610E-1,3.104818344E0
3.791320738E0,-6.799077988E-2,1.963750124E-1,3.176589012E0
3.796142821E0,-7.010444999E-2,2.930221558E-1,3.241305351E0
3.800964852E0,-5.792054534E-2,3.845683932E-1,3.300094604E0
3.805786884E0,-7.697644830E-2,4.837706089E-1,3.360022545E0
3.810608915E0,-8.207136393E-2,5.700013638E-1,3.429333687E0
3.815430946E0,-9.260991216E-2,6.705446243E-1,3.495941162E0
3.820252977E0,-8.736920357E-2,7.755097747E-1,3.551329613E0
3.825075061E0,-1.192664802E-1,8.894233108E-1,3.615664482E0
3.829897092E0,-1.325181127E-1,9.964972734E-1,3.675616264E0
3.834719123E0,-1.334387362E-1,1.113328338E0,3.723847389E0
3.839541154E0,-1.487310827E-1,1.212194204E0,3.780490875E0
3.844363238E0,-1.392798722E-1,1.339470148E0,3.807087898E0
3.849185269E0,-1.496725678E-1,1.432935715E0,3.862050056E0
3.854007300E0,-1.658491492E-1,1.554633617E0,3.887784958E0
3.858829332E0,-1.654775143E-1,1.674527645E0,3.915192604E0
3.863651363E0,-1.726155281E-1,1.774612069E0,3.908237457E0
3.868473446E0,-1.839513183E-1,1.907465100E0,3.901441574E0
3.873295477E0,-1.853784919E-1,2.006094456E0,3.892238617E0
3.878117509E0,-1.829659939E-1,2.132631540E0,3.870904922E0
3.882939540E0,-1.720098853E-1,2.248831034E0,3.850461960E0
3.887761571E0,-1.585924625E-1,2.357132912E0,3.793737411E0
3.892583654E0,-1.617057920E-1,2.467133999E0,3.732926369E0
3.897405686E0,-1.670049429E-1,2.589641571E0,3.678684235E0
3.902227717E0,-1.648181081E-1,2.700796843E0,3.605821609E0
3.907049748E0,-1.454009414E-1,2.788719893E0,3.526233673E0
3.911871779E0,-1.373399198E-1,2.915782452E0,3.448280334E0
3.916693811E0,-1.498451531E-1,3.005470276E0,3.364720345E0
3.921515894E0,-1.421234012E-1,3.114158154E0,3.288692474E0
3.926337925E0,-1.258561313E-1,3.225233078E0,3.209428787E0
3.931159957E0,-1.282989383E-1,3.306512356E0,3.106590271E0
3.935981988E0,-1.179505289E-1,3.401192665E0,3.044748306E0
3.940804019E0,-1.125916243E-1,3.503541470E0,2.945038795E0
3.945626102E0,-1.034480631E-1,3.594473124E0,2.848118782E0
3.950448134E0,-8.437970281E-2,3.676544905E0,2.758784294E0
3.955270165E0,-8.607953787E-2,3.775010109E0,2.649578094E0
3.960092196E0,-8.087146282E-2,3.850673676E0,2.540915489E0
3.964914227E0,-5.890381336E-2,3.928745985E0,2.422056198E0
3.969736311E0,-5.710148811E-2,4.013036728E0,2.300255775E0
3.974558342E0,-6.327506900E-2,4.103667259E0,2.198254585E0
3.979380373E0,-5.214729905E-2,4.160130501E0,2.069466591E0
3.984202404E0,-4.873958230E-2,4.219771385E0,1.937924385E0
3.989024436E0,-3.627291322E-2,4.291049957E0,1.817996979E0
3.993846467E0,-2.782970667E-2,4.370517254E0,1.687024117E0
3.998668550E0,-2.339759469E-2,4.416543484E0,1.553470612E0
4.003490582E0,-1.588732004E-2,4.486557961E0,1.429291725E0
4.008312613E0,-1.657962799E-3,4.542584896E0,1.307444572E0
4.013134644E0,1.187622547E-3,4.606207848E0,1.185554504E0
4.017956675E0,1.280790567E-2,4.660767555E0,1.085162163E0
4.022778759E0,4.443466663E-3,4.706433296E0,9.752492905E-1
4.027600790E0,5.784094334E-3,4.760078430E0,8.773994446E-1
4.032422821E0,9.519815445E-3,4.803872585E0,7.964258194E-1
4.037244852E0,2.236753702E-3,4.862990379E0,7.060489655E-1
4.042066936E0,1.961225271E-2,4.894484520E0,6.206617355E-1
4.046888967E0,1.245078444E-2,4.930704117E0,5.546207428E-1
4.051710998E0,2.590867877E-2,4.969355583E0,4.936094284E-1
4.056533029E0,1.434826851E-2,5.000957489E0,4.280977249E-1
4.061355061E0,1.701587439E-2,5.035007000E0,3.783559799E-1
4.066177144E0,2.054062486E-2,5.071720600E0,3.289480209E-1
4.070999175E0,2.230188251E-2,5.111001015E0,2.726373672E-1
4.075821207E0,1.977655292E-2,5.131426811E0,2.393512726E-1
4.080643238E0,9.138435125E-3,5.136614799E0,1.943998337E-1
4.085465269E0,2.137157321E-2,5.179107666E0,1.592731476E-1
4.090287300E0,2.045699954E-2,5.197953224E0,1.279964447E-1
4.095109384E0,3.249385953E-2,5.200378895E0,1.029586792E-1
4.099931415E0,3.949004412E-2,5.218570709E0,8.409404755E-2
4.104753446E0,3.656330705E-2,5.256116867E0,6.542587280E-2
4.109575477E0,3.205463290E-2,5.252014637E0,4.812908173E-2
4.114397509E0,2.831536531E-2,5.262423515E0,3.694820404E-2
4.119219592E0,2.536916733E-2,5.270569801E0,2.230262756E-2
4.124041623E0,2.080893517E-2,5.283597469E0,1.374053955E-2
4.128863654E0,1.825129986E-2,5.291841507E0,2.195453644E-2
4.133685686E0,2.380564809E-2,5.314334869E0,3.253936768E-2
4.138507717E0,1.722007990E-2,5.304434776E0,4.070472717E-2
4.143329800E0,2.602621913E-2,5.312255859E0,7.506847382E-2
4.148151832E0,3.595894575E-2,5.309064865E0,1.104888916E-1
4.152973863E0,3.291922808E-2,5.297095299E0,1.337299347E-1
4.157795894E0,2.657738328E-2,5.308580875E0,1.722726822E-1
4.162617925E0,1.592603326E-2,5.300364017E0,2.296180725E-1
4.167440009E0,1.420578361E-2,5.280764580E0,2.841911316E-1
4.172262040E0,2.885445952E-2,5.274765491E0,3.490734100E-1
4.177084071E0,3.007021546E-2,5.269080162E0,4.038553238E-1
4.181906102E0,1.808628440E-2,5.245651722E0,4.735584259E-1
4.186728134E0,3.893315792E-3,5.242681026E0,5.413980484E-1
4.191550217E0,-1.603662968E-3,5.225365162E0,6.132640839E-1
4.196372248E0,-6.819069386E-4,5.198344231E0,6.902408600E-1
4.201194279E0,2.202630043E-3,5.179400921E0,7.722196579E-1
4.206016311E0,5.871564150E-3,5.152939320E0,8.436136246E-1
4.210838342E0,1.053121686E-2,5.139116764E0,9.090986252E-1
4.215660425E0,1.151525974E-2,5.105551243E0,9.865283966E-1
4.220482457E0,-7.765978575E-3,5.087997437E0,1.055488586E0
4.225304488E0,6.570398808E-3,5.055216789E0,1.125442505E0
4.230126519E0,1.036861539E-2,5.005902767E0,1.201072693E0
4.234948550E0,1.801055670E-2,4.973402977E0,1.267940521E0
4.239770582E0,6.923794746E-3,4.936066628E0,1.337927818E0
4.244592665E0,9.768903255E-4,4.883003235E0,1.406153679E0
4.249414696E0,6.141155958E-3,4.845199585E0,1.478533745E0
4.254236727E0,-7.412910461E-3,4.781873226E0,1.554983139E0
4.259058759E0,-9.956866503E-3,4.745471001E0,1.633010864E0
4.263880842E0,-1.461479068E-2,4.689261436E0,1.718546867E0
4.268702873E0,-1.436150074E-2,4.639488220E0,1.790047646E0
4.273524904E0,-1.050069928E-2,4.582802296E0,1.859382629E0
4.278346936E0,-1.497483253E-2,4.531033516E0,1.961165428E0
4.283168967E0,-2.449181676E-2,4.469821930E0,2.055948257E0
4.287990998E0,-3.908145428E-2,4.380957603E0,2.153162956E0
4.292813082E0,-2.432239056E-2,4.306308746E0,2.244500160E0
4.297635113E0,-3.775539994E-2,4.246826172E0,2.320332527E0
4.302457144E0,-4.133015871E-2,4.184569836E0,2.407035828E0
4.307279175E0,-4.359900951E-2,4.106223106E0,2.486644745E0
4.312101207E0,-5.311578512E-2,4.002146721E0,2.555607796E0
4.316923290E0,-5.935069919E-2,3.921292067E0,2.630713463E0
4.321745321E0,-6.607988477E-2,3.834865570E0,2.695281029E0
4.326567352E0,-7.119682431E-2,3.749984980E0,2.741023064E0
4.331389384E0,-8.074042201E-2,3.646289825E0,2.780012131E0
4.336211415E0,-8.186477423E-2,3.555963993E0,2.817096710E0
4.341033498E0,-9.023815393E-2,3.463473558E0,2.845252991E0
4.345855529E0,-9.763610363E-2,3.356766462E0,2.871745110E0
4.350677561E0,-1.113737524E-1,3.250244617E0,2.902719498E0
4.355499592E0,-1.159850657E-1,3.148716211E0,2.935951233E0
4.360321623E0,-1.235080659E-1,3.052121401E0,2.940502167E0
4.365143707E0,-1.172696352E-1,2.952136517E0,2.953643799E0
4.369965738E0,-1.271931827E-1,2.842871189E0,2.963620186E0
4.374787769E0,-1.376901269E-1,2.741093636E0,2.976601601E0
4.379609800E0,-1.403622627E-1,2.625370026E0,2.976070404E0
4.384431832E0,-1.482441425E-1,2.494667530E0,2.987376213E0
4.389253915E0,-1.600410938E-1,2.384919167E0,2.984421730E0
4.394075946E0,-1.612446010E-1,2.300980568E0,2.973420143E0
4.398897977E0,-1.481292844E-1,2.196434259E0,2.959413528E0
4.403720009E0,-1.765987873E-1,2.084644794E0,2.949814796E0
4.408542040E0,-1.746857464E-1,1.959848881E0,2.930505753E0
4.413364123E0,-1.660667360E-1,1.855706096E0,2.911271095E0
4.418186154E0,-1.529082656E-1,1.760544658E0,2.886362076E0
4.423008186E0,-1.575919688E-1,1.661463499E0,2.845238686E0
4.427830217E0,-1.558794081E-1,1.563535213E0,2.804837227E0
4.432652248E0,-1.499258876E-1,1.455096126E0,2.758153915E0
4.437474332E0,-1.406166255E-1,1.369990110E0,2.714928627E0
4.442296363E0,-1.384381056E-1,1.292941570E0,2.650191307E0
4.447118394E0,-1.407605708E-1,1.202761412E0,2.579616547E0
4.451940425E0,-1.342256963E-1,1.109391809E0,2.515259743E0
4.456762457E0,-1.127165556E-1,1.037136436E0,2.445244789E0
4.461584540E0,-8.917474747E-2,9.743066430E-1,2.376793861E0
4.466406571E0,-7.439216971E-2,8.938019872E-1,2.296790123E0
4.471228602E0,-7.431215048E-2,7.995812893E-1,2.231545448E0
4.476050634E0,-7.572439313E-2,7.446321845E-1,2.161915779E0
4.480872665E0,-6.913557649E-2,6.681738496E-1,2.103397369E0
4.485694748E0,-5.474984646E-2,5.838434696E-1,2.041591644E0
4.490516779E0,-5.891981721E-2,5.218061209E-1,1.996745110E0
4.495338811E0,-5.674454570E-2,4.620385766E-1,1.954405785E0
4.500160842E0,-5.923432112E-2,3.915816247E-1,1.926413536E0
4.504982873E0,-7.618984580E-2,3.275299072E-1,1.905461311E0
4.509804957E0,-7.330730557E-2,2.533729672E-1,1.879457474E0
4.514626988E0,-6.877234578E-2,1.765411496E-1,1.861409187E0
4.519449019E0,-7.251238823E-2,1.282478273E-1,1.857125282E0
4.524271050E0,-8.721566200E-2,5.727171898E-2,1.874794006E0
4.529093082E0,-9.057393670E-2,-1.830077171E-2,1.868808746E0
4.533915113E0,-8.879262209E-2,-9.589934349E-2,1.865321159E0
4.538737196E0,-1.121312082E-1,-1.670774221E-1,1.878497124E0
4.543559227E0,-1.213340461E-1,-2.401368618E-1,1.884252548E0
4.548381259E0,-1.369340718E-1,-3.090716600E-1,1.881245613E0
4.553203290E0,-1.424739063E-1,-3.918370605E-1,1.888456345E0
4.558025321E0,-1.357260346E-1,-4.644802809E-1,1.904528618E0
4.562847404E0,-1.455478072E-1,-5.544674397E-1,1.904216766E0
4.567669436E0,-1.647560000E-1,-6.451974511E-1,1.916118622E0
4.572491467E0,-1.742758155E-1,-7.367231846E-1,1.925774574E0
4.577313498E0,-1.716375351E-1,-8.375293016E-1,1.940272331E0
4.582135529E0,-1.687496901E-1,-9.274281263E-1,1.959540367E0
4.586957613E0,-1.750900149E-1,-1.012576461E0,1.996663094E0
4.591779644E0,-1.832924485E-1,-1.118137956E0,2.027662277E0
4.596601675E0,-1.799972057E-1,-1.218039036E0,2.066869736E0
4.601423707E0,-1.816505492E-1,-1.335159659E0,2.109482765E0
4.606245738E0,-1.868454218E-1,-1.433780551E0,2.165038109E0
4.611067821E0,-1.821195781E-1,-1.514190912E0,2.189331055E0
4.615889852E0,-1.743051410E-1,-1.624433517E0,2.245749474E0
4.620711884E0,-1.834872067E-1,-1.749045253E0,2.285255432E0
4.625533915E0,-1.877688468E-1,-1.847714901E0,2.323462486E0
4.630355946E0,-1.629310846E-1,-1.970881343E0,2.363989830E0
4.635178029E0,-1.529478133E-1,-2.058988571E0,2.386558533E0
4.640000061E0,-1.622588038E-1,-2.170889378E0,2.415143013E0
4.644822092E0,-1.523436606E-1,-2.287680387E0,2.416331291E0
4.649644123E0,-1.409888864E-1,-2.385659218E0,2.432019234E0
4.654466154E0,-1.494781375E-1,-2.499801874E0,2.437176704E0
4.659288238E0,-1.381409168E-1,-2.614724398E0,2.431859970E0
4.664110269E0,-1.391920447E-1,-2.709156990E0,2.424512863E0
4.668932300E0,-1.251189113E-1,-2.807219982E0,2.396079063E0
4.673754332E0,-1.233108938E-1,-2.904337406E0,2.372942924E0
4.678576363E0,-1.075676978E-1,-3.012653589E0,2.349188805E0
4.683398446E0,-1.149542034E-1,-3.109618425E0,2.321300507E0
4.688220477E0,-1.133591831E-1,-3.221707106E0,2.291739464E0
4.693042509E0,-1.159865260E-1,-3.316730976E0,2.252195358E0
4.697864540E0,-1.074396968E-1,-3.406834602E0,2.223074913E0
4.702686571E0,-1.154794395E-1,-3.490917921E0,2.192466736E0
4.707508654E0,-1.092473567E-1,-3.580982924E0,2.154438972E0
4.712330686E0,-9.850206971E-2,-3.678369284E0,2.116251945E0
4.717152717E0,-1.134344041E-1,-3.757994413E0,2.083912849E0
4.721974748E0,-1.183701754E-1,-3.847470522E0,2.056291580E0
4.726796779E0,-1.063997447E-1,-3.927639008E0,2.020259857E0
4.731618863E0,-1.137101352E-1,-4.016433716E0,1.972269058E0
4.736440894E0,-1.201462746E-1,-4.080449581E0,1.936294556E0
4.741262925E0,-1.080178618E-1,-4.150723934E0,1.901573181E0
4.746084957E0,-1.063205302E-1,-4.226009846E0,1.846609116E0
4.750906988E0,-1.092264354E-1,-4.290718079E0,1.786973000E0
4.755729019E0,-1.144712269E-1,-4.381837845E0,1.734630585E0
4.760551102E0,-1.198831499E-1,-4.450259686E0,1.677614212E0
4.765373134E0,-1.099783480E-1,-4.517441750E0,1.627886772E0
4.770195165E0,-1.255773306E-1,-4.566540718E0,1.553153038E0
4.775017196E0,-1.176633835E-1,-4.634490013E0,1.486880302E0
4.779839227E0,-1.077837646E-1,-4.697292805E0,1.406355858E0
4.784661311E0,-1.162647605E-1,-4.733290195E0,1.329479218E0
4.789483342E0,-1.143933535E-1,-4.796080112E0,1.260958672E0
4.794305373E0,-1.093391776E-1,-4.847306252E0,1.181650162E0
4.799127404E0,-1.057802737E-1,-4.889182091E0,1.103452682E0
4.803949436E0,-1.107841432E-1,-4.931052208E0,1.029850960E0
4.808771519E0,-1.038608849E-1,-4.977646351E0,9.429187775E-1
4.813593550E0,-1.171008646E-1,-5.022744656E0,8.580932617E-1
4.818415582E0,-9.427404404E-2,-5.060188770E0,7.513780594E-1
4.823237613E0,-9.255483747E-2,-5.083862305E0,6.693267822E-1
4.828059644E0,-8.783623576E-2,-5.112704277E0,5.950651169E-1
4.832881727E0,-8.111318946E-2,-5.146568298E0,5.093784332E-1
4.837703759E0,-7.702979445E-2,-5.170907974E0,4.408187866E-1
4.842525790E0,-6.345352530E-2,-5.204697132E0,3.665456772E-1
4.847347821E0,-7.002648711E-2,-5.217885017E0,2.924118042E-1
4.852169852E0,-7.277008891E-2,-5.211494923E0,2.242259979E-1
4.856991936E0,-6.183612347E-2,-5.229641438E0,1.630554199E-1
4.861813967E0,-6.344676018E-2,-5.236305237E0,1.087465286E-1
4.866635998E0,-4.994115233E-2,-5.240840435E0,4.675102234E-2
4.871458029E0,-3.670063615E-2,-5.243154526E0,-2.740859985E-3
4.876280061E0,-2.846583724E-2,-5.241928101E0,-4.826259613E-2
4.881102144E0,-4.548443854E-2,-5.229847431E0,-9.358310699E-2
4.885924175E0,-4.091684520E-2,-5.228276253E0,-1.281385422E-1
4.890746207E0,-2.440015972E-2,-5.221588612E0,-1.747827530E-1
4.895568238E0,-1.134978235E-2,-5.197711468E0,-2.205319405E-1
4.900390269E0,-1.251795888E-2,-5.201949120E0,-2.655639648E-1
4.905212352E0,-1.121734083E-2,-5.180360794E0,-3.112626076E-1
4.910034384E0,-1.930315793E-2,-5.159224987E0,-3.469848633E-1
4.914856415E0,-5.762711167E-3,-5.146805763E0,-3.729000092E-1
4.919678446E0,-5.363076925E-3,-5.125106812E0,-4.190235138E-1
4.924500477E0,-3.810077906E-3,-5.111907005E0,-4.676055908E-1
4.929322561E0,1.197606325E-4,-5.107196808E0,-5.115389824E-1
4.934144592E0,2.716362476E-3,-5.078634262E0,-5.413923264E-1
4.938966623E0,1.442700624E-3,-5.060844421E0,-5.835804939E-1
4.943788654E0,1.057064533E-2,-5.041757107E0,-6.226944923E-1
4.948610686E0,2.396704257E-2,-5.010623932E0,-6.348843575E-1
4.953432769E0,1.292294264E-2,-5.000778198E0,-6.597661972E-1
4.958254800E0,2.032420039E-2,-4.959613800E0,-6.710729599E-1
4.963076832E0,6.757080555E-4,-4.923007011E0,-6.807985306E-1
4.967898863E0,3.985315561E-3,-4.898030281E0,-6.926212311E-1
4.972720894E0,1.456817985E-2,-4.881029606E0,-6.898584366E-1
4.977542977E0,7.192164660E-3,-4.849234581E0,-6.988582611E-1
4.982365009E0,3.348857164E-3,-4.820520878E0,-6.837925911E-1
4.987187040E0,1.953604817E-2,-4.790081978E0,-6.614155769E-1
4.992009071E0,2.098253369E-2,-4.754271507E0,-6.377224922E-1
4.996831102E0,6.446301937E-3,-4.722573280E0,-6.103405952E-1
5.001653186E0,-3.112852573E-4,-4.687803268E0,-5.780248642E-1
5.006475217E0,-1.020529866E-2,-4.652277470E0,-5.527205467E-1
5.011297248E0,-5.944669247E-4,-4.633887291E0,-5.176286697E-1
5.016119279E0,-1.220360398E-2,-4.585952759E0,-4.882397652E-1
5.020941311E0,-3.237426281E-3,-4.555160046E0,-4.524493217E-1
5.025763394E0,-2.521443367E-2,-4.523452759E0,-4.138169289E-1
5.030585425E0,-2.076721191E-2,-4.500386238E0,-3.722157478E-1
5.035407457E0,-1.619845629E-2,-4.470446110E0,-3.310651779E-1
5.040229488E0,-2.114567161E-2,-4.432413101E0,-2.950205803E-1
5.045051519E0,-2.838459611E-2,-4.401867867E0,-2.423782349E-1
5.049873550E0,-2.117040753E-2,-4.360868454E0,-2.016749382E-1
5.054695634E0,-2.701672912E-2,-4.331015110E0,-1.416034698E-1
5.059517665E0,-2.672585845E-2,-4.327795506E0,-8.354282379E-2
5.064339696E0,-2.131476998E-2,-4.271224022E0,-2.483844757E-2
5.069161727E0,-3.466027975E-2,-4.231908798E0,5.622005463E-2
5.073983759E0,-3.075313568E-2,-4.207516193E0,1.156272888E-1
5.078805842E0,-2.505517006E-2,-4.182612419E0,2.098245621E-1
5.083627873E0,-3.770053387E-2,-4.122635365E0,2.983751297E-1
5.088449904E0,-2.549338341E-2,-4.100686550E0,3.911180496E-1
5.093271936E0,-3.608757257E-2,-4.072566509E0,5.001945496E-1
5.098093967E0,-4.660233855E-2,-4.020568848E0,5.959892273E-1
5.102916050E0,-2.575489879E-2,-3.985534906E0,7.014703751E-1
5.107738082E0,-3.557008505E-2,-3.923394918E0,7.977323532E-1
5.112560113E0,-3.999367356E-2,-3.886988640E0,9.172916412E-1
5.117382144E0,-5.671313405E-2,-3.826388359E0,1.018554688E0
5.122204175E0,-2.826583385E-2,-3.790787458E0,1.120841026E0
5.127026259E0,-3.216779232E-2,-3.738588572E0,1.227939606E0
5.131848290E0,-4.798930883E-2,-3.677304506E0,1.346031189E0
5.136670321E0,-5.766907334E-2,-3.626352787E0,1.457351685E0
5.141492352E0,-4.787388444E-2,-3.551431179E0,1.557318687E0
5.146314384E0,-4.743811488E-2,-3.505356789E0,1.662775040E0
5.151136467E0,-4.543507099E-2,-3.431087017E0,1.784608841E0
5.155958498E0,-4.309749603E-2,-3.362492085E0,1.881100655E0
5.160780529E0,-5.126240849E-2,-3.304543018E0,1.998929024E0
5.165602561E0,-6.036072969E-2,-3.220607758E0,2.115463257E0
5.170424592E0,-6.098103523E-2,-3.133716583E0,2.231936455E0
5.175246675E0,-6.397172809E-2,-3.077565193E0,2.355523109E0
5.180068707E0,-8.031341434E-2,-2.978444338E0,2.464737892E0
5.184890738E0,-9.816870093E-2,-2.866551399E0,2.583478928E0
5.189712769E0,-1.057931483E-1,-2.791192055E0,2.704532623E0
5.194534800E0,-9.627935290E-2,-2.698794842E0,2.811109543E0
5.199356884E0,-1.129297614E-1,-2.587264061E0,2.919892311E0
5.204178915E0,-1.128976643E-1,-2.491508722E0,3.031992912E0
5.209000946E0,-1.143714488E-1,-2.392559767E0,3.143715858E0
5.213822977E0,-1.200251877E-1,-2.272808552E0,3.243028641E0
5.218645009E0,-1.121254861E-1,-2.165807724E0,3.329813957E0
5.223467092E0,-1.220233440E-1,-2.043086052E0,3.418313026E0
5.228289123E0,-1.271662116E-1,-1.927415371E0,3.483297348E0
5.233111154E0,-1.325201988E-1,-1.820158362E0,3.543793678E0
5.237933186E0,-1.394395232E-1,-1.701003790E0,3.579357147E0
5.242755217E0,-1.540239453E-1,-1.584429860E0,3.620967865E0
5.247577300E0,-1.488137841E-1,-1.473940134E0,3.643400192E0
5.252399332E0,-1.394554377E-1,-1.350417018E0,3.671648026E0
5.257221363E0,-1.390544772E-1,-1.222243905E0,3.694849968E0
5.262043394E0,-1.321224570E-1,-1.090535283E0,3.697370529E0
5.266865425E0,-1.472573876E-1,-9.599882364E-1,3.699452400E0
5.271687509E0,-1.304843426E-1,-8.388763070E-1,3.693851471E0
5.276509540E0,-1.354942322E-1,-7.115017772E-1,3.678112030E0
5.281331571E0,-1.405458450E-1,-5.896296501E-1,3.665327072E0
5.286153602E0,-1.203534603E-1,-4.742914140E-1,3.664998055E0
5.290975634E0,-1.117845774E-1,-3.318395913E-1,3.651968956E0
5.295797717E0,-1.157692969E-1,-2.003007084E-1,3.609491348E0
5.300619748E0,-1.117433012E-1,-7.226155698E-2,3.559080124E0
5.305441779E0,-9.694501758E-2,4.410250485E-2,3.530599594E0
5.310263811E0,-8.790847659E-2,1.909583956E-1,3.478600502E0
5.315085842E0,-8.317109942E-2,3.004528284E-1,3.429390907E0
5.319907925E0,-7.771030068E-2,4.421958029E-1,3.344731331E0
5.324729957E0,-6.650060415E-2,5.602044463E-1,3.271265030E0
5.329551988E0,-6.362512708E-2,7.026544809E-1,3.192264557E0
5.334374019E0,-6.177273393E-2,8.363630176E-1,3.095799446E0
5.339196050E0,-5.005413294E-2,9.556549191E-1,2.998639107E0
5.344018134E0,-3.189399838E-2,1.081168771E0,2.874527931E0
5.348840165E0,-2.754473686E-2,1.204851627E0,2.753404617E0
5.353662196E0,-2.747511864E-2,1.318587422E0,2.628124237E0
5.358484227E0,-1.608932018E-2,1.427442312E0,2.501128197E0
5.363306259E0,5.388259888E-4,1.556763768E0,2.384411812E0
5.368128342E0,6.759911776E-3,1.669767261E0,2.250530243E0
5.372950373E0,1.322469115E-2,1.779745936E0,2.129422188E0
5.377772404E0,7.850974798E-3,1.885749698E0,2.015160561E0
5.382594436E0,3.565162420E-3,2.001185656E0,1.904219627E0
5.387416467E0,6.152302027E-3,2.089119196E0,1.784706116E0
5.392238550E0,-6.143391132E-3,2.184373140E0,1.709267616E0
5.397060582E0,9.468644857E-3,2.276274920E0,1.624144554E0
5.401882613E0,7.268488407E-3,2.370992661E0,1.548547745E0
5.406704644E0,-3.346979618E-3,2.468566656E0,1.487311363E0
5.411526675E0,7.178008556E-3,2.547555923E0,1.428543091E0
5.416348759E0,7.529437542E-3,2.635500193E0,1.379479408E0
5.421170790E0,-1.339018345E-3,2.726425409E0,1.336601257E0
5.425992821E0,-4.721879959E-4,2.809505939E0,1.299959183E0
5.430814852E0,1.231700182E-2,2.864437819E0,1.262458801E0
5.435636884E0,-7.392704487E-3,2.931870461E0,1.242103577E0
5.440458967E0,-8.259534836E-3,3.004458427E0,1.206665039E0
5.445280998E0,-2.387642860E-3,3.073768616E0,1.187304497E0
5.450103029E0,3.003954887E-3,3.122868061E0,1.166122437E0
5.454925061E0,-1.131612062E-2,3.189912319E0,1.149160385E0
5.459747092E0,7.284104824E-3,3.241295815E0,1.136478424E0
5.464569175E0,1.343488693E-2,3.311369896E0,1.122103691E0
5.469391207E0,2.434909344E-3,3.358102322E0,1.124006271E0
5.474213238E0,-5.298256874E-4,3.393308878E0,1.130258560E0
5.479035269E0,3.442823887E-3,3.468173504E0,1.140875816E0
5.483857300E0,1.575940847E-2,3.519035816E0,1.161824226E0
5.488679332E0,1.383692026E-2,3.570677519E0,1.171546936E0
5.493501415E0,2.292817831E-2,3.619346857E0,1.223830223E0
5.498323446E0,2.171039581E-2,3.671904087E0,1.249265671E0
5.503145477E0,2.954453230E-2,3.708960533E0,1.293241501E0
5.507967509E0,3.103286028E-2,3.745795488E0,1.336545944E0
5.512789592E0,3.125584126E-2,3.810799599E0,1.381482124E0
5.517611623E0,3.747928143E-2,3.873810768E0,1.429141998E0
5.522433654E0,2.963504195E-2,3.917791843E0,1.493731499E0
5.527255686E0,3.417518735E-2,3.981955290E0,1.548811913E0
5.532077717E0,3.337368369E-2,4.012219906E0,1.591849327E0
5.536899800E0,4.046419263E-2,4.058566093E0,1.641811371E0
5.541721832E0,4.241916537E-2,4.106422424E0,1.694947243E0
5.546543863E0,3.103512526E-2,4.161486626E0,1.755825996E0
5.551365894E0,2.430984378E-2,4.202074528E0,1.801567078E0
5.556187925E0,3.062531352E-2,4.261423111E0,1.843917847E0
5.561010009E0,3.096771240E-2,4.302266121E0,1.885066032E0
5.565832040E0,1.453483105E-2,4.345935822E0,1.915225029E0
5.570654071E0,1.720309258E-2,4.401813984E0,1.942553520E0
5.575476102E0,2.220821381E-2,4.472140312E0,1.966846466E0
5.580298134E0,2.237105370E-2,4.520982742E0,2.003474236E0
5.585120217E0,1.158919930E-2,4.566083908E0,2.024668694E0
5.589942248E0,1.968193054E-2,4.607327461E0,2.033815384E0
5.594764279E0,1.673603058E-2,4.653054237E0,2.055868149E0
5.599586311E0,6.189644337E-3,4.693599224E0,2.083425522E0
5.604408342E0,1.133263111E-3,4.742016315E0,2.091181755E0
5.609230425E0,1.581093669E-2,4.795819759E0,2.107636452E0
5.614052457E0,1.421934366E-2,4.827496529E0,2.126649857E0
5.618874488E0,-3.722488880E-3,4.871727943E0,2.136134148E0
5.623696519E0,-9.476333857E-3,4.918843746E0,2.145455360E0
5.628518550E0,-8.106827736E-4,4.937769890E0,2.164042950E0
5.633340634E0,7.323920727E-4,4.996589661E0,2.176188469E0
5.638162665E0,-4.957228899E-3,5.010429382E0,2.177018642E0
5.642984696E0,4.712134600E-3,5.042689323E0,2.193934441E0
5.647806727E0,-3.844648600E-3,5.065872192E0,2.198149681E0
5.652628759E0,8.749544621E-3,5.102639675E0,2.194332123E0
5.657450842E0,-1.622420549E-2,5.106387615E0,2.201544762E0
5.662272873E0,-1.420271397E-2,5.124968052E0,2.182677746E0
5.667094904E0,-5.607217550E-3,5.133264065E0,2.169972897E0
5.671916936E0,-1.198726892E-2,5.143309593E0,2.151488304E0
5.676738967E0,-1.543518901E-2,5.151430130E0,2.137889385E0
5.681561050E0,-2.202650905E-2,5.151754379E0,2.123255730E0
5.686383082E0,-1.500841975E-2,5.162204742E0,2.089653969E0
5.691205113E0,-2.310547233E-2,5.154112816E0,2.074176311E0
5.696027144E0,-1.647260785E-2,5.150230885E0,2.042185783E0
5.700849175E0,-3.091913462E-2,5.126708984E0,2.021262169E0
5.705671259E0,-3.420785069E-2,5.111016750E0,1.995869160E0
5.710493290E0,-1.428276300E-2,5.102028370E0,1.963742256E0
5.715315321E0,-2.612948418E-2,5.078253746E0,1.932144642E0
5.720137352E0,-1.829233766E-2,5.074380398E0,1.905939102E0
5.724959384E0,-3.493836522E-2,5.033051491E0,1.882831097E0
5.729781467E0,-3.778973222E-2,4.997406006E0,1.845038414E0
5.734603498E0,-3.989440203E-2,4.960277557E0,1.820168018E0
5.739425529E0,-3.043907881E-2,4.927757740E0,1.790466785E0
5.744247561E0,-3.675904870E-2,4.890246868E0,1.751247406E0
5.749069592E0,-4.801771045E-2,4.841899395E0,1.726616859E0
5.753891623E0,-3.782573342E-2,4.804270744E0,1.704746246E0
5.758713707E0,-3.121009469E-2,4.764299870E0,1.673864365E0
5.763535738E0,-4.356932640E-2,4.713660240E0,1.631738663E0
5.768357769E0,-3.892534971E-2,4.678798676E0,1.588153839E0
5.773179800E0,-2.794837952E-2,4.626265526E0,1.544442177E0
5.778001884E0,-3.205853701E-2,4.575316906E0,1.494816780E0
5.782823915E0,-4.033994675E-2,4.530944824E0,1.444314957E0
5.787645946E0,-2.519083023E-2,4.472926140E0,1.384739876E0
5.792467977E0,-3.077772260E-2,4.425238609E0,1.334165573E0
5.797290009E0,-4.032209516E-2,4.372564316E0,1.276082039E0
5.802112040E0,-2.858465910E-2,4.326997280E0,1.211864471E0
5.806934123E0,-3.496316075E-2,4.261142254E0,1.156000137E0
5.811756154E0,-2.233430743E-2,4.209911346E0,1.108684540E0
5.816578186E0,-2.893269062E-2,4.156722546E0,1.052141190E0
5.821400217E0,-1.526165009E-2,4.111329079E0,1.004466057E0
5.826222248E0,-2.321451902E-2,4.061955452E0,9.681825638E-1
5.831044332E0,-3.011551499E-2,3.992072582E0,9.171266556E-1
5.835866363E0,-1.205784082E-2,3.944916964E0,8.801279068E-1
5.840688394E0,-1.096260548E-2,3.895542860E0,8.548851013E-1
5.845510425E0,-1.852872968E-2,3.851392269E0,8.224086761E-1
5.850332457E0,-1.812732220E-2,3.803112745E0,8.126764297E-1
5.855154540E0,-2.177050710E-2,3.744863033E0,7.886781693E-1
5.859976571E0,-1.771360636E-2,3.675775290E0,7.720556259E-1
5.864798602E0,-2.042484283E-2,3.643829346E0,7.544841766E-1
5.869620634E0,-2.758610249E-2,3.591817856E0,7.539415359E-1
5.874442665E0,-4.060834646E-2,3.543839216E0,7.417554855E-1
5.879264748E0,-2.953141928E-2,3.450390100E0,7.461185455E-1
5.884086779E0,-4.482710361E-2,3.378670454E0,7.451553345E-1
5.888908811E0,-6.159755588E-2,3.291872740E0,7.460069656E-1
5.893730842E0,-4.079899192E-2,3.221040249E0,7.426805496E-1
5.898552873E0,-5.415230989E-2,3.141420364E0,7.364072800E-1
5.903374957E0,-5.162802339E-2,3.065007687E0,7.473201752E-1
5.908196988E0,-6.433802843E-2,2.983696222E0,7.681360245E-1
5.913019019E0,-6.620746851E-2,2.904673100E0,7.761535645E-1
5.917841050E0,-7.168623805E-2,2.818581104E0,7.844810486E-1
5.922663082E0,-7.841989398E-2,2.740944147E0,8.286371231E-1
5.927485165E0,-7.458823919E-2,2.648097992E0,8.643760681E-1
5.932307196E0,-9.588006139E-2,2.568707466E0,9.023790359E-1
5.937129227E0,-9.818777442E-2,2.476428509E0,9.484558105E-1
5.941951259E0,-9.948852658E-2,2.385830879E0,1.004883766E0
5.946773290E0,-9.851589799E-2,2.299168110E0,1.078606606E0
5.951595321E0,-1.224897504E-1,2.204584599E0,1.138576508E0
5.956417404E0,-1.200682521E-1,2.111525536E0,1.221611977E0
5.961239436E0,-1.222687662E-1,2.022376060E0,1.303734779E0
5.966061467E0,-1.264791787E-1,1.923918724E0,1.394377708E0
5.970883498E0,-1.301318109E-1,1.801904917E0,1.480363846E0
5.975705529E0,-1.294538379E-1,1.716888428E0,1.573536873E0
5.980527613E0,-1.231436431E-1,1.605582476E0,1.683277130E0
5.985349644E0,-1.299457252E-1,1.500133038E0,1.775001526E0
5.990171675E0,-1.187854707E-1,1.402680039E0,1.872534752E0
5.994993707E0,-1.224080920E-1,1.286415577E0,1.995874405E0
5.999815738E0,-1.349886060E-1,1.190366864E0,2.104044914E0
6.004637821E0,-1.240089834E-1,1.075963020E0,2.214952469E0
6.009459852E0,-1.335093379E-1,9.645816684E-1,2.323798180E0
6.014281884E0,-1.322883964E-1,8.428257108E-1,2.426974297E0
6.019103915E0,-1.249408722E-1,7.463490963E-1,2.528062820E0
6.023925946E0,-1.233476698E-1,6.126920581E-1,2.619880676E0
6.028748029E0,-1.190488338E-1,4.954835176E-1,2.725143433E0
6.033570061E0,-1.214832067E-1,3.823995590E-1,2.813958168E0
6.038392092E0,-1.115956008E-1,2.350505143E-1,2.912639618E0
6.043214123E0,-1.228853762E-1,1.201420501E-1,2.992513657E0
6.048036154E0,-1.253657043E-1,3.870889544E-3,3.072739601E0
6.052858238E0,-1.228516698E-1,-1.354924887E-1,3.164094925E0
6.057680269E0,-1.165876985E-1,-2.706305087E-1,3.240313530E0
6.062502300E0,-1.210657358E-1,-4.030050933E-1,3.311011314E0
6.067324332E0,-1.280862689E-1,-5.363674164E-1,3.372652054E0
6.072146363E0,-1.175116599E-1,-6.577484608E-1,3.457560539E0
6.076968394E0,-1.314113736E-1,-8.032165170E-1,3.513190269E0
6.081790477E0,-1.400762498E-1,-9.203535318E-1,3.558759689E0
6.086612509E0,-1.317754686E-1,-1.059523702E0,3.596739769E0
6.091434540E0,-1.402703822E-1,-1.187367439E0,3.641550064E0
6.096256571E0,-1.215302944E-1,-1.319562912E0,3.682512283E0
6.101078602E0,-1.355305612E-1,-1.468131542E0,3.704180717E0
6.105900686E0,-1.466538906E-1,-1.598449111E0,3.715029716E0
6.110722717E0,-1.443375647E-1,-1.729702711E0,3.711580276E0
6.115544748E0,-1.394408941E-1,-1.863082767E0,3.707094193E0
6.120366779E0,-1.692538559E-1,-2.002139091E0,3.693298340E0
6.125188811E0,-1.669201255E-1,-2.126570940E0,3.666730881E0
6.130010894E0,-1.659743190E-1,-2.236330509E0,3.622732162E0
6.134832925E0,-1.676275730E-1,-2.375528812E0,3.581737518E0
6.139654957E0,-1.611702442E-1,-2.487874508E0,3.537872314E0
6.144476988E0,-1.478611827E-1,-2.611446142E0,3.482861519E0
6.149299019E0,-1.515026093E-1,-2.725819349E0,3.427583694E0
6.154121102E0,-1.374144554E-1,-2.857122183E0,3.376902580E0
6.158943134E0,-1.448421478E-1,-2.960797787E0,3.301004410E0
6.163765165E0,-1.533280611E-1,-3.075028419E0,3.232279778E0
6.168587196E0,-1.411722004E-1,-3.179197073E0,3.167189598E0
6.173409227E0,-1.298455298E-1,-3.271852016E0,3.092619896E0
6.178231311E0,-1.143134832E-1,-3.387421131E0,3.027750015E0
6.183053342E0,-1.050734222E-1,-3.500502348E0,2.937938690E0
6.187875373E0,-1.056199372E-1,-3.582098961E0,2.862632751E0
6.192697404E0,-8.095434308E-2,-3.640264034E0,2.776696205E0
6.197519436E0,-8.600106835E-2,-3.747717142E0,2.680133820E0
6.202341467E0,-6.671646237E-2,-3.840689421E0,2.596783638E0
6.207163550E0,-5.646792054E-2,-3.910499096E0,2.497868538E0
6.211985582E0,-5.743670464E-2,-3.992675304E0,2.400027275E0
6.216807613E0,-5.625942349E-2,-4.041580200E0,2.296015739E0
6.221629644E0,-3.499463201E-2,-4.110623837E0,2.184472084E0
6.226451675E0,-1.509371400E-2,-4.185225010E0,2.076043129E0
6.231273759E0,-1.082229614E-2,-4.226781845E0,1.960972786E0
6.236095790E0,1.805990934E-3,-4.274508953E0,1.853439331E0
6.240917821E0,2.642673254E-2,-4.325813770E0,1.747300148E0
6.245739852E0,3.182324767E-2,-4.379179955E0,1.642314911E0
6.250561884E0,5.137637258E-2,-4.431971550E0,1.531091690E0
6.255383915E0,5.525565147E-2,-4.457718849E0,1.430168152E0
6.260205998E0,5.768686533E-2,-4.513638973E0,1.330955505E0
6.265028029E0,7.051143050E-2,-4.546922684E0,1.232019424E0
6.269850061E0,8.641418815E-2,-4.577728271E0,1.149845123E0
6.274672092E0,6.837874651E-2,-4.621463776E0,1.063884735E0
6.279494123E0,7.711821795E-2,-4.648139477E0,9.894523621E-1
6.284316207E0,9.334126115E-2,-4.662395477E0,9.191083908E-1
6.289138238E0,1.026451588E-1,-4.725114822E0,8.430776596E-1
6.293960269E0,9.526693821E-2,-4.740608215E0,7.743177414E-1
6.298782300E0,9.380471706E-2,-4.739913940E0,6.934738159E-1
6.303604332E0,8.619141579E-2,-4.779181480E0,6.421928406E-1
6.308426363E0,1.081955433E-1,-4.794999599E0,5.748424530E-1
6.313248446E0,1.082644165E-1,-4.826802731E0,5.235185623E-1
6.318070477E0,1.138597131E-1,-4.849493504E0,4.689331055E-1
6.322892509E0,1.224726439E-1,-4.879820824E0,4.049625397E-1
6.327714540E0,1.136578321E-1,-4.903434753E0,3.565540314E-1
6.332536571E0,1.232642531E-1,-4.934734344E0,3.044652939E-1
6.337358654E0,1.261775196E-1,-4.949860573E0,2.593584061E-1
6.342180686E0,1.413715184E-1,-4.972734928E0,2.067527771E-1
6.347002717E0,1.151320636E-1,-4.980733871E0,1.597576141E-1
6.351824748E0,1.228114367E-1,-5.028861046E0,1.314153671E-1
6.356646779E0,1.344400048E-1,-5.058600426E0,8.821201324E-2
6.361468863E0,1.332837343E-1,-5.074894428E0,5.050182343E-2
6.366290894E0,1.325661540E-1,-5.099238396E0,2.534675598E-2
6.371112925E0,1.359579563E-1,-5.123386860E0,8.258819580E-4
6.375934957E0,1.446160078E-1,-5.141396999E0,-2.788114548E-2
6.380756988E0,1.443125606E-1,-5.170102596E0,-5.475616455E-2
6.385579019E0,1.613532305E-1,-5.180893898E0,-7.141113281E-2
6.390401102E0,1.444286108E-1,-5.202525139E0,-8.620309830E-2
6.395223134E0,1.522080898E-1,-5.221943855E0,-8.472824097E-2
6.400045165E0,1.561063230E-1,-5.243977547E0,-9.684753418E-2
6.404867196E0,1.573684812E-1,-5.275914192E0,-9.974527359E-2
6.409689227E0,1.644617319E-1,-5.276001930E0,-1.076974869E-1
6.414511311E0,1.715561748E-1,-5.300520420E0,-1.134467125E-1
6.419333342E0,1.714962125E-1,-5.312497616E0,-1.121196747E-1
6.424155373E0,1.643670201E-1,-5.333498001E0,-1.120347977E-1
6.428977404E0,1.682170928E-1,-5.350462437E0,-1.011314392E-1
6.433799436E0,1.843329966E-1,-5.374284744E0,-1.043725014E-1
6.438621467E0,1.864925325E-1,-5.376336098E0,-1.120991707E-1
6.443443550E0,1.843676567E-1,-5.379467010E0,-1.038546562E-1
6.448265582E0,1.911392212E-1,-5.392072201E0,-1.011071205E-1
6.453087613E0,1.913952827E-1,-5.387974262E0,-8.458471298E-2
6.457909644E0,1.982291043E-1,-5.401993752E0,-8.521938324E-2
6.462731675E0,2.057721615E-1,-5.405407906E0,-6.472444534E-2
6.467553759E0,2.081542313E-1,-5.404428959E0,-4.082489014E-2
6.472375790E0,2.100929320E-1,-5.397851944E0,-2.903509140E-2
6.477197821E0,1.901107728E-1,-5.422904491E0,-1.959896088E-2
6.482019852E0,1.949330270E-1,-5.406745434E0,5.521774292E-3
6.486841884E0,1.885822415E-1,-5.405654907E0,1.890945435E-2
6.491663915E0,2.057767212E-1,-5.388679981E0,5.059289932E-2
6.496485998E0,2.081103325E-1,-5.384541512E0,7.191514969E-2
6.501308029E0,2.040053010E-1,-5.388630867E0,1.093511581E-1
6.506130061E0,2.017999291E-1,-5.355646610E0,1.295413971E-1
6.510952092E0,2.086197138E-1,-5.345356464E0,1.743326187E-1
6.515774123E0,1.921494603E-1,-5.343573570E0,2.103967667E-1
6.520596154E0,2.000764608E-1,-5.309796810E0,2.486076355E-1
6.525418238E0,1.999816597E-1,-5.273956776E0,3.009357452E-1
6.530240269E0,1.834565401E-1,-5.267224312E0,3.375778198E-1
6.535062300E0,1.910166144E-1,-5.245479107E0,3.897142410E-1
6.539884332E0,1.819356084E-1,-5.208845139E0,4.323120117E-1
6.544706363E0,1.836028099E-1,-5.182504177E0,4.773817062E-1
6.549528446E0,1.874687076E-1,-5.176091671E0,5.213871002E-1
6.554350477E0,1.947025657E-1,-5.134651661E0,5.691356659E-1
6.559172509E0,1.812700033E-1,-5.076271057E0,6.135234833E-1
6.563994540E0,1.864486337E-1,-5.034482002E0,6.521835327E-1
6.568816571E0,1.755348444E-1,-4.983041763E0,6.971120834E-1
6.573638602E0,1.639485061E-1,-4.944704056E0,7.459230423E-1
6.578460686E0,1.707336307E-1,-4.906399727E0,7.926788330E-1
6.583282717E0,1.694883406E-1,-4.847898483E0,8.469781876E-1
6.588104748E0,1.672841609E-1,-4.790708542E0,8.801031113E-1
6.592926779E0,1.545018852E-1,-4.763525486E0,9.350996017E-1
6.597748811E0,1.431354880E-1,-4.710257530E0,9.928760529E-1
6.602570842E0,1.510753334E-1,-4.663204193E0,1.045055389E0
6.607392925E0,1.423854828E-1,-4.607999802E0,1.086841583E0
6.612214957E0,1.409583688E-1,-4.535129547E0,1.129010201E0
6.617036988E0,1.373245120E-1,-4.479203224E0,1.184672356E0
6.621859019E0,1.362084448E-1,-4.409163475E0,1.235893250E0
6.626681050E0,1.246265769E-1,-4.335798740E0,1.275522232E0
6.631503134E0,1.145558357E-1,-4.287716866E0,1.326237679E0
6.636325165E0,1.240052581E-1,-4.225407124E0,1.379637718E0
6.641147196E0,1.291466355E-1,-4.141681194E0,1.426148415E0
6.645969227E0,1.242177188E-1,-4.054503441E0,1.464602470E0
6.650791259E0,1.259770393E-1,-3.997168064E0,1.493731499E0
6.655613290E0,1.118691862E-1,-3.926554918E0,1.543401718E0
6.660435373E0,1.203305721E-1,-3.822316647E0,1.566977501E0
6.665257404E0,1.239731312E-1,-3.747757435E0,1.593148232E0
6.670079436E0,1.241516173E-1,-3.672834873E0,1.633814812E0
6.674901467E0,1.257974803E-1,-3.583120584E0,1.671011925E0
6.679723498E0,1.183657050E-1,-3.500022173E0,1.686788559E0
6.684545582E0,1.031603217E-1,-3.417394161E0,1.709796906E0
6.689367613E0,1.113469005E-1,-3.325637341E0,1.711353302E0
6.694189644E0,1.155300140E-1,-3.234101057E0,1.735627174E0
6.699011675E0,9.431564808E-2,-3.130760670E0,1.747933388E0
6.703833707E0,9.805035591E-2,-3.050167084E0,1.761410713E0
6.708655738E0,9.803920984E-2,-2.957495213E0,1.764081955E0
6.713477769E0,1.062875390E-1,-2.854926825E0,1.788167000E0
6.718299852E0,1.024771631E-1,-2.750703335E0,1.796583176E0
6.723121884E0,8.060634136E-2,-2.666259289E0,1.807281494E0
6.727943915E0,9.326392412E-2,-2.566727161E0,1.811868668E0
6.732765946E0,7.946515083E-2,-2.477164745E0,1.830693245E0
6.737587977E0,7.733583450E-2,-2.355503082E0,1.832633018E0
6.742410009E0,7.845231891E-2,-2.256679058E0,1.845222473E0
6.747232092E0,6.828823686E-2,-2.174539328E0,1.858890533E0
6.752054123E0,7.297807932E-2,-2.057540894E0,1.867674828E0
6.756876154E0,5.775010586E-2,-1.965357304E0,1.883558273E0
6.761698186E0,4.871261120E-2,-1.869184494E0,1.885060310E0
6.766520217E0,4.092884064E-2,-1.777319431E0,1.906900406E0
6.771342300E0,4.018437862E-2,-1.675330877E0,1.912059784E0
6.776164332E0,3.912973404E-2,-1.570359945E0,1.919741631E0
6.780986363E0,1.364088058E-2,-1.488543391E0,1.943124771E0
6.785808394E0,8.994698524E-3,-1.391642809E0,1.955997467E0
6.790630425E0,-5.680322647E-5,-1.301217914E0,1.971610069E0
6.795452457E0,2.971947193E-3,-1.188457012E0,1.993601799E0
6.800274540E0,-9.464502335E-3,-1.120323181E0,2.001757622E0
6.805096571E0,-1.242733002E-2,-1.032241464E0,2.029648781E0
6.809918602E0,-1.434755325E-2,-9.255447388E-1,2.046312332E0
6.814740634E0,-3.081244230E-2,-8.397572041E-1,2.075771332E0
6.819562665E0,-4.744869471E-2,-7.569089532E-1,2.107362747E0
6.824384696E0,-4.522067308E-2,-6.592402458E-1,2.128069878E0
6.829206779E0,-4.199588299E-2,-5.718801022E-1,2.153554916E0
6.834028811E0,-4.376709461E-2,-4.866192937E-1,2.191108704E0
6.838850842E0,-4.561299086E-2,-4.060016870E-1,2.219335556E0
6.843672873E0,-5.818927288E-2,-3.194409013E-1,2.263461113E0
6.848494904E0,-7.769268751E-2,-2.330056429E-1,2.288924217E0
6.853316988E0,-5.147248507E-2,-1.505660713E-1,2.337684631E0
6.858139019E0,-5.821698904E-2,-5.439698696E-2,2.393086433E0
6.862961050E0,-6.663626432E-2,2.901639044E-2,2.433702469E0
6.867783082E0,-8.613854647E-2,1.054163724E-1,2.475163460E0
6.872605113E0,-8.187744021E-2,1.948751211E-1,2.519927025E0
6.877427144E0,-7.625821233E-2,2.852213681E-1,2.575215340E0
6.882249175E0,-7.157939672E-2,3.677939177E-1,2.624322891E0
6.887071259E0,-7.479888201E-2,4.470726252E-1,2.657719612E0
6.891893290E0,-8.934068680E-2,5.539616942E-1,2.712475777E0
6.896715321E0,-7.792237401E-2,6.367051601E-1,2.753907204E0
6.901537352E0,-8.705812693E-2,7.213406563E-1,2.786780357E0
6.906359384E0,-9.394749999E-2,8.100068569E-1,2.820624352E0
6.911181415E0,-1.021186709E-1,9.024159908E-1,2.863744736E0
6.916003498E0,-9.961077571E-2,1.010288596E0,2.884991646E0
6.920825529E0,-1.030375957E-1,1.102272272E0,2.927328110E0
6.925647561E0,-1.207735538E-1,1.192400455E0,2.960743904E0
6.930469592E0,-1.074586213E-1,1.273313999E0,2.979169846E0
6.935291623E0,-1.325087547E-1,1.375901461E0,3.004018784E0
6.940113707E0,-1.290002167E-1,1.476009130E0,3.017225266E0
6.944935738E0,-1.485264599E-1,1.574666619E0,3.041376114E0
6.949757769E0,-1.576334834E-1,1.672863722E0,3.071533203E0
6.954579800E0,-1.660419106E-1,1.762018919E0,3.072872162E0
6.959401832E0,-1.500483751E-1,1.864723921E0,3.084714890E0
6.964223863E0,-1.683939099E-1,1.967736602E0,3.084202766E0
6.969045946E0,-1.685820818E-1,2.074480057E0,3.104646683E0
6.973867977E0,-1.710741520E-1,2.177662373E0,3.098065376E0
6.978690009E0,-1.832030416E-1,2.286695719E0,3.090602875E0
6.983512040E0,-1.991558373E-1,2.381290913E0,3.071390152E0
6.988334071E0,-2.023565471E-1,2.479268551E0,3.060588837E0
6.993156102E0,-1.941207647E-1,2.572198868E0,3.029361725E0
6.997978134E0,-1.805614531E-1,2.673273087E0,3.017056465E0
7.002800217E0,-2.047811151E-1,2.765662193E0,2.978089333E0
7.007622248E0,-2.058829069E-1,2.862576485E0,2.936297417E0
7.012444279E0,-2.078206241E-1,2.967564821E0,2.883193016E0
7.017266311E0,-2.011039257E-1,3.056791544E0,2.827075958E0
7.022088342E0,-2.084560692E-1,3.144640446E0,2.779807091E0
7.026910425E0,-1.916341782E-1,3.229946375E0,2.718585968E0
7.031732457E0,-2.032080591E-1,3.315155506E0,2.649338722E0
7.036554488E0,-2.120400369E-1,3.376449347E0,2.573215485E0
7.041376519E0,-2.037639320E-1,3.498765230E0,2.500932693E0
7.046198550E0,-2.093465924E-1,3.569770336E0,2.420493126E0
7.051020582E0,-2.060210705E-1,3.642222881E0,2.348621368E0
7.055842665E0,-1.997340918E-1,3.718562126E0,2.284070015E0
7.060664696E0,-1.903243363E-1,3.801259518E0,2.189775467E0
7.065486727E0,-1.979868114E-1,3.877314806E0,2.100446701E0
7.070308759E0,-2.022897303E-1,3.940875292E0,2.019671440E0
7.075130790E0,-1.959861219E-1,4.026641369E0,1.935461044E0
7.079952821E0,-1.896437407E-1,4.086909294E0,1.845451355E0
7.084774852E0,-1.880024821E-1,4.138575077E0,1.765213013E0
7.089596936E0,-1.873067617E-1,4.186522007E0,1.656515121E0
7.094418967E0,-1.611486375E-1,4.266782761E0,1.578007698E0
7.099240998E0,-1.764120013E-1,4.314872742E0,1.469923019E0
7.104063029E0,-1.719676703E-1,4.357194424E0,1.372935295E0
7.108885061E0,-1.824159026E-1,4.424974918E0,1.290680885E0
7.113707144E0,-1.753716767E-1,4.457329273E0,1.192097664E0
7.118529175E0,-1.747402251E-1,4.497418404E0,1.111893654E0
7.123351207E0,-1.673246026E-1,4.534549236E0,1.015416145E0
7.128173238E0,-1.697726250E-1,4.578460217E0,9.183006287E-1
7.132995269E0,-1.485901922E-1,4.617275238E0,8.361167908E-1
7.137817300E0,-1.647432894E-1,4.654669285E0,7.640981674E-1
7.142639332E0,-1.500506550E-1,4.688349247E0,6.783781052E-1
7.147461415E0,-1.584029049E-1,4.711232185E0,5.957374573E-1
7.152283446E0,-1.515020728E-1,4.744946003E0,5.198116302E-1
7.157105477E0,-1.640659124E-1,4.771633625E0,4.566020966E-1
7.161927509E0,-1.471184641E-1,4.817684650E0,3.750753403E-1
7.166749540E0,-1.510200799E-1,4.832931042E0,3.147020340E-1
7.171571571E0,-1.506501883E-1,4.840152740E0,2.575511932E-1
7.176393654E0,-1.544335634E-1,4.857414722E0,2.001018524E-1
7.181215686E0,-1.468833685E-1,4.877536774E0,1.507196426E-1
7.186037717E0,-1.532309651E-1,4.896995544E0,9.508800507E-2
7.190859748E0,-1.568410248E-1,4.927768707E0,6.548881531E-2
7.195681779E0,-1.482869387E-1,4.926928520E0,3.565692902E-2
7.200503811E0,-1.527146101E-1,4.925583363E0,-3.843307495E-4
7.205325894E0,-1.510392725E-1,4.933292866E0,-2.112102509E-2
7.210147925E0,-1.577853411E-1,4.944110870E0,-4.925632477E-2
7.214969957E0,-1.622955203E-1,4.949721813E0,-6.563663483E-2
7.219791988E0,-1.681298018E-1,4.959677219E0,-7.745361328E-2
7.224614019E0,-1.587394476E-1,4.960842133E0,-9.546852112E-2
7.229436050E0,-1.497816890E-1,4.938837528E0,-9.460639954E-2
7.234258134E0,-1.603928357E-1,4.941566944E0,-9.636020660E-2
7.239080165E0,-1.618946642E-1,4.942657948E0,-9.836578369E-2
7.243902196E0,-1.580247432E-1,4.926592827E0,-8.986663818E-2
7.248724227E0,-1.691430956E-1,4.926851749E0,-7.923984528E-2
7.253546259E0,-1.558074802E-1,4.912227631E0,-6.536197662E-2
7.258368290E0,-1.550958604E-1,4.887534618E0,-2.910709381E-2
7.263190321E0,-1.765794605E-1,4.881448746E0,-6.360054016E-3
7.268012404E0,-1.760256737E-1,4.864022255E0,1.959800720E-2
7.272834436E0,-1.785907745E-1,4.851960659E0,6.069183350E-2
7.277656467E0,-1.902103722E-1,4.817733288E0,1.061286926E-1
7.282478498E0,-1.689753085E-1,4.804295540E0,1.642217636E-1
7.287300529E0,-1.806989014E-1,4.768579006E0,2.038764954E-1
7.292122561E0,-1.858052760E-1,4.739210606E0,2.489757538E-1
7.296944644E0,-1.973641068E-1,4.711350441E0,3.042688370E-1
7.301766675E0,-1.913959533E-1,4.690828323E0,3.684778214E-1
7.306588707E0,-1.953631938E-1,4.662085056E0,4.368114471E-1
7.311410738E0,-1.972613335E-1,4.614248753E0,5.056133270E-1
7.316232769E0,-1.885406077E-1,4.583174706E0,5.617456436E-1
7.321054800E0,-1.954178959E-1,4.524483204E0,6.266622543E-1
7.325876884E0,-1.938934028E-1,4.494290829E0,6.931495667E-1
7.330698915E0,-2.101497948E-1,4.458983421E0,7.719116211E-1
7.335520946E0,-1.950774640E-1,4.401745796E0,8.354120255E-1
7.340342977E0,-1.832756400E-1,4.352392197E0,9.075393677E-1
7.345165009E0,-2.069126815E-1,4.303659916E0,9.786987305E-1
7.349987040E0,-2.133102417E-1,4.236306667E0,1.050037384E0
7.354809071E0,-2.035526037E-1,4.190882683E0,1.110774994E0
7.359631154E0,-1.882759184E-1,4.123046875E0,1.209886551E0
7.364453186E0,-2.056841850E-1,4.072121620E0,1.285147667E0
7.369275217E0,-2.054693550E-1,4.004484177E0,1.341325760E0
7.374097248E0,-2.295057774E-1,3.934401989E0,1.428618431E0
7.378919279E0,-2.035702765E-1,3.873788357E0,1.499210358E0
7.383741311E0,-2.077103406E-1,3.805753231E0,1.584157944E0
7.388563394E0,-2.120166719E-1,3.717040062E0,1.652365685E0
7.393385425E0,-2.153443247E-1,3.636266708E0,1.736123085E0
7.398207457E0,-2.032985985E-1,3.564505816E0,1.818688393E0
7.403029488E0,-2.046449184E-1,3.480149269E0,1.892910957E0
7.407851519E0,-2.122132629E-1,3.386652946E0,1.965970993E0
7.412673550E0,-2.081439644E-1,3.299564123E0,2.051083565E0
7.417495634E0,-2.080511600E-1,3.215157270E0,2.118379593E0
7.422317665E0,-2.024422884E-1,3.127358913E0,2.191815376E0
7.427139696E0,-2.057702541E-1,3.037353992E0,2.261903763E0
7.431961727E0,-2.265022546E-1,2.933043003E0,2.348982811E0
7.436783759E0,-2.300481498E-1,2.827599049E0,2.398167610E0
7.441605790E0,-2.165607214E-1,2.719757080E0,2.466927528E0
7.446427821E0,-2.053424716E-1,2.639321566E0,2.529024124E0
7.451249904E0,-2.120115459E-1,2.544498444E0,2.575031281E0
7.456071936E0,-2.044397891E-1,2.441196918E0,2.621775627E0
7.460893967E0,-2.341808081E-1,2.327023029E0,2.663385391E0
7.465715998E0,-2.343808413E-1,2.228400707E0,2.700019836E0
7.470538029E0,-2.303230166E-1,2.108199120E0,2.732966423E0
7.475360061E0,-2.208480835E-1,1.978409052E0,2.763547897E0
7.480182144E0,-2.228293121E-1,1.873815417E0,2.787139893E0
7.485004175E0,-2.208214998E-1,1.781220913E0,2.809836388E0
7.489826207E0,-2.137037516E-1,1.668511868E0,2.834190369E0
7.494648238E0,-2.313790619E-1,1.552528024E0,2.834048271E0
7.499470269E0,-2.249258459E-1,1.434556723E0,2.849010468E0
7.504292300E0,-2.361843586E-1,1.337508440E0,2.851731300E0
7.509114332E0,-2.292382419E-1,1.223216891E0,2.855507851E0
7.513936415E0,-2.244260013E-1,1.113395214E0,2.854503632E0
7.518758446E0,-2.192789614E-1,9.902092218E-1,2.861989975E0
7.523580477E0,-2.090412080E-1,9.041703939E-1,2.851816177E0
7.528402509E0,-2.125499845E-1,7.908504009E-1,2.832491875E0
7.533224540E0,-2.095462382E-1,6.767874956E-1,2.826839447E0
7.538046571E0,-2.033987045E-1,5.705844164E-1,2.830176353E0
7.542868654E0,-1.892656684E-1,4.880043268E-1,2.797176361E0
7.547690686E0,-1.848632395E-1,3.790781498E-1,2.770991325E0
7.552512717E0,-1.913007796E-1,2.643822730E-1,2.751681328E0
7.557334748E0,-1.867946982E-1,1.860545874E-1,2.716600418E0
7.562156779E0,-1.676449180E-1,9.166884422E-2,2.682537079E0
7.566978811E0,-1.636623442E-1,-7.633894682E-3,2.647133827E0
7.571800894E0,-1.686479449E-1,-8.770959079E-2,2.608018875E0
7.576622925E0,-1.586176455E-1,-1.865895689E-1,2.569972992E0
7.581444957E0,-1.441650391E-1,-2.848196030E-1,2.522233963E0
7.586266988E0,-1.431584358E-1,-3.726162314E-1,2.468363762E0
7.591089019E0,-1.221083701E-1,-4.341767430E-1,2.419083595E0
7.595911050E0,-1.083745658E-1,-5.206922889E-1,2.369555473E0
7.600733082E0,-6.741550565E-2,-6.067746878E-1,2.336436272E0
7.605555113E0,-7.801085711E-2,-6.958490610E-1,2.282590866E0
7.610377196E0,-6.248125434E-2,-7.673814297E-1,2.243805885E0
7.615199227E0,-5.204471946E-2,-8.522360325E-1,2.202035904E0
7.620021259E0,-6.340023875E-2,-9.334990978E-1,2.173914909E0
7.624843290E0,-5.489864945E-2,-1.013419509E0,2.153336525E0
7.629665321E0,-4.212626815E-2,-1.085834742E0,2.133005142E0
7.634487352E0,-3.124278784E-2,-1.176945329E0,2.122360229E0
7.639309436E0,-4.382389784E-2,-1.247201562E0,2.092597008E0
7.644131467E0,-1.916566491E-2,-1.325169921E0,2.086618423E0
7.648953498E0,-3.983926773E-2,-1.414353967E0,2.092324257E0
7.653775529E0,-4.503881931E-2,-1.496731400E0,2.073724747E0
7.658597561E0,-2.780807018E-2,-1.560395718E0,2.076148987E0
7.663419592E0,-3.126078844E-2,-1.641104341E0,2.071954727E0
7.668241623E0,-2.809369564E-2,-1.730507255E0,2.067017555E0
7.673063707E0,-2.558028698E-2,-1.820227623E0,2.075575829E0
7.677885738E0,-1.431030035E-2,-1.912749290E0,2.065264702E0
7.682707769E0,-2.668017149E-2,-1.982944608E0,2.062288284E0
7.687529800E0,-2.215313911E-2,-2.063091278E0,2.066531181E0
7.692351832E0,-1.153439283E-2,-2.142574310E0,2.060015678E0
7.697173863E0,-1.151001453E-2,-2.245405674E0,2.045095444E0
7.701995894E0,-6.675958633E-3,-2.336946964E0,2.033658981E0
7.706817977E0,-2.892613411E-3,-2.423326015E0,2.037628174E0
7.711640009E0,-1.452279091E-2,-2.512939930E0,2.025852203E0
7.716462040E0,7.456481457E-3,-2.617943764E0,2.022255898E0
7.721284071E0,1.410239935E-2,-2.700194359E0,2.008892059E0
7.726106102E0,1.390874386E-2,-2.783695936E0,2.013235092E0
7.730928186E0,2.249419689E-2,-2.863847256E0,2.010187149E0
7.735750217E0,1.246589422E-2,-2.963437080E0,2.008114815E0
7.740572248E0,1.748692989E-2,-3.063483715E0,1.997485161E0
7.745394279E0,3.280413151E-2,-3.162952900E0,1.986702919E0
7.750216311E0,3.590399027E-2,-3.240482569E0,1.971022606E0
7.755038342E0,5.197203159E-2,-3.332040310E0,1.968386650E0
7.759860373E0,5.727386475E-2,-3.409047127E0,1.964470863E0
7.764682457E0,6.989741325E-2,-3.483704567E0,1.943826675E0
7.769504488E0,8.394259214E-2,-3.575211048E0,1.916049004E0
7.774326519E0,7.684606314E-2,-3.662136078E0,1.890739441E0
7.779148550E0,8.817440271E-2,-3.742248774E0,1.869149208E0
7.783970582E0,8.932590485E-2,-3.833564043E0,1.835769653E0
7.788792613E0,8.996427059E-2,-3.907538652E0,1.810990334E0
7.793614644E0,9.964424372E-2,-3.972631931E0,1.773317337E0
7.798436675E0,1.076820493E-1,-4.051662445E0,1.747907639E0
7.803258759E0,1.141175032E-1,-4.130330086E0,1.706092834E0
7.808080790E0,1.224606633E-1,-4.225482464E0,1.675427437E0
7.812902821E0,1.208889782E-1,-4.287031174E0,1.635648727E0
7.817724852E0,1.428410411E-1,-4.349626541E0,1.592724800E0
7.822546884E0,1.475692093E-1,-4.421723366E0,1.547895432E0
7.827368915E0,1.481480598E-1,-4.468762398E0,1.494044304E0
7.832190998E0,1.529768705E-1,-4.536184311E0,1.453900337E0
7.837013029E0,1.559238434E-1,-4.597716808E0,1.403567314E0
7.841835061E0,1.641313434E-1,-4.661697388E0,1.362163544E0
7.846657092E0,1.643214822E-1,-4.713777542E0,1.308167458E0
7.851479123E0,1.695458591E-1,-4.767177582E0,1.257162094E0
7.856301154E0,1.869054437E-1,-4.827838898E0,1.195985794E0
7.861123186E0,1.816204786E-1,-4.865873337E0,1.144966125E0
7.865945269E0,1.858493090E-1,-4.915880680E0,1.087310791E0
7.870767300E0,1.815517545E-1,-4.967137337E0,1.027834892E0
7.875589332E0,1.937468052E-1,-5.012441158E0,9.713029861E-1
7.880411363E0,1.924712062E-1,-5.048127651E0,9.104928970E-1
7.885233394E0,1.930634975E-1,-5.092032909E0,8.668460846E-1
7.890055425E0,1.836557686E-1,-5.130984306E0,8.068799973E-1
7.894877457E0,2.047789097E-1,-5.163722992E0,7.688007355E-1
7.899699540E0,2.168419957E-1,-5.186610699E0,7.119092941E-1
7.904521571E0,2.150635123E-1,-5.217515469E0,6.612720490E-1
7.909343602E0,2.089781761E-1,-5.255144119E0,6.287698746E-1
7.914165634E0,1.949412227E-1,-5.280268192E0,5.904026031E-1
7.918987665E0,2.064970136E-1,-5.303660870E0,5.533466339E-1
7.923809696E0,2.028853893E-1,-5.333506107E0,5.234375000E-1
7.928631727E0,2.009465396E-1,-5.343448162E0,4.994239807E-1
7.933453811E0,2.137836814E-1,-5.375253201E0,4.621086121E-1
7.938275842E0,2.162878513E-1,-5.367812634E0,4.233436584E-1
7.943097873E0,2.181445956E-1,-5.386863708E0,3.842926025E-1
7.947919904E0,2.216928601E-1,-5.395184994E0,3.615579605E-1
7.952741936E0,2.031637728E-1,-5.399883747E0,3.203983307E-1
7.957563967E0,2.044157684E-1,-5.398444176E0,2.714710236E-1
7.962386050E0,2.123589516E-1,-5.402749062E0,2.326354980E-1
7.967208082E0,2.067300677E-1,-5.398430347E0,1.871099472E-1
7.972030113E0,2.211050391E-1,-5.412851810E0,1.491241455E-1
7.976852144E0,2.279973924E-1,-5.412360668E0,9.939002991E-2
7.981674175E0,2.227926850E-1,-5.395746708E0,5.101871490E-2
7.986496207E0,2.115325928E-1,-5.372525215E0,-2.044677734E-3
7.991318238E0,2.158166766E-1,-5.378404617E0,-3.245258331E-2
7.996140321E0,2.273319364E-1,-5.370303154E0,-7.732725143E-2
8.000962352E0,2.425572872E-1,-5.356505394E0,-1.212239265E-1
8.005784384E0,2.472059131E-1,-5.340477943E0,-1.547107697E-1
8.010606415E0,2.294300497E-1,-5.323346138E0,-1.778860092E-1
8.015428446E0,2.395011485E-1,-5.305036068E0,-1.872658730E-1
8.020250477E0,2.320752442E-1,-5.272327423E0,-2.152132988E-1
8.025072509E0,2.418876290E-1,-5.252642632E0,-2.331161499E-1
8.029894592E0,2.342149019E-1,-5.217190742E0,-2.434830666E-1
8.034716623E0,2.247217298E-1,-5.207709312E0,-2.416405678E-1
8.039538654E0,2.421289086E-1,-5.179906845E0,-2.443866730E-1
8.044360686E0,2.410082817E-1,-5.118195057E0,-2.482051849E-1
8.049182717E0,2.393936813E-1,-5.100206375E0,-2.376284599E-1
8.054004748E0,2.371872663E-1,-5.064836502E0,-2.486181259E-1
8.058826779E0,2.356440425E-1,-5.040742874E0,-2.489142418E-1
8.063648863E0,2.479013801E-1,-5.007467270E0,-2.326488495E-1
8.068470894E0,2.392489910E-1,-4.973347664E0,-2.189798355E-1
8.073292925E0,2.348374128E-1,-4.922761917E0,-2.270684242E-1
8.078114957E0,2.262617350E-1,-4.893908501E0,-2.210588455E-1
8.082936988E0,2.301502824E-1,-4.858000755E0,-1.974158287E-1
8.087759019E0,2.369413972E-1,-4.807834625E0,-1.896061897E-1
8.092581050E0,2.202522755E-1,-4.775606632E0,-1.773133278E-1
8.097403134E0,2.314832211E-1,-4.728980541E0,-1.724700928E-1
8.102225165E0,2.430237532E-1,-4.710986137E0,-1.475224495E-1
8.107047196E0,2.213208675E-1,-4.658132553E0,-1.550941467E-1
8.111869227E0,1.997813582E-1,-4.630203247E0,-1.138143539E-1
8.116691259E0,2.154666781E-1,-4.598430157E0,-8.104753494E-2
8.121513290E0,1.988313198E-1,-4.556843758E0,-5.191564560E-2
8.126335321E0,1.952976584E-1,-4.500574589E0,-1.801395416E-2
8.131157352E0,1.952014565E-1,-4.459524632E0,2.435112000E-2
8.135979436E0,1.888670325E-1,-4.414526939E0,8.123874664E-2
8.140801467E0,1.654771566E-1,-4.367948055E0,1.240568161E-1
8.145623498E0,1.763516068E-1,-4.326994896E0,1.780681610E-1
8.150445529E0,1.747922897E-1,-4.282063961E0,2.433671951E-1
8.155267561E0,1.678650379E-1,-4.235548019E0,3.105106354E-1
8.160089592E0,1.424242556E-1,-4.182707787E0,3.724985123E-1
8.164911623E0,1.342803538E-1,-4.139153481E0,4.462509155E-1
8.169733707E0,1.421766877E-1,-4.101320744E0,5.139884949E-1
8.174555738E0,1.480888128E-1,-4.058469772E0,5.711002350E-1
8.179377769E0,1.221695542E-1,-3.994012117E0,6.476936340E-1
8.184199800E0,1.289628148E-1,-3.947409630E0,7.343311310E-1
8.189021832E0,1.051260829E-1,-3.905719042E0,8.085641861E-1
8.193843863E0,1.163728535E-1,-3.848656654E0,8.872890472E-1
8.198665946E0,1.077841520E-1,-3.793098450E0,9.778738022E-1
8.203487977E0,9.254378080E-2,-3.739221096E0,1.054231644E0
8.208310009E0,7.671654224E-2,-3.691915751E0,1.157187462E0
8.213132040E0,8.544790745E-2,-3.629892588E0,1.249888420E0
8.217954071E0,9.486824274E-2,-3.564078331E0,1.352832794E0
8.222776102E0,8.126151562E-2,-3.506669044E0,1.451879501E0
8.227598134E0,7.450270653E-2,-3.459058523E0,1.562731743E0
8.232420217E0,7.603570819E-2,-3.393961906E0,1.677183151E0
8.237242248E0,7.153737545E-2,-3.325965405E0,1.777451515E0
8.242064279E0,5.755200982E-2,-3.261312485E0,1.882823944E0
8.246886311E0,6.169608235E-2,-3.188299656E0,2.008959770E0
8.251708342E0,4.946565628E-2,-3.110841274E0,2.111758232E0
8.256530373E0,3.762620687E-2,-3.038665533E0,2.205647469E0
8.261352404E0,2.630126476E-2,-2.952952147E0,2.303882599E0
8.266174488E0,2.754741907E-2,-2.861234903E0,2.411329269E0
8.270996519E0,2.701342106E-2,-2.773288727E0,2.495744705E0
8.275818550E0,1.408311725E-2,-2.670288563E0,2.573929787E0
8.280640582E0,2.341970801E-2,-2.605053902E0,2.673386574E0
8.285462613E0,6.082117558E-3,-2.509674549E0,2.748682976E0
8.290284644E0,-3.290295601E-3,-2.411983490E0,2.827336311E0
8.295106675E0,-1.063975692E-2,-2.309787750E0,2.888990402E0
8.299928759E0,-1.694262028E-3,-2.205750465E0,2.956337929E0
8.304750790E0,-2.673605084E-2,-2.114394903E0,3.028116226E0
8.309572821E0,-1.765087247E-2,-2.008421421E0,3.098283768E0
8.314394852E0,-2.715158463E-2,-1.899970889E0,3.157209396E0
8.319216884E0,-5.292484164E-2,-1.803520918E0,3.213184357E0
8.324038915E0,-5.083024502E-2,-1.672605634E0,3.282855034E0
8.328860946E0,-4.250749946E-2,-1.558852315E0,3.352973938E0
8.333682977E0,-5.557274818E-2,-1.459919095E0,3.393560410E0
8.338505009E0,-6.988930702E-2,-1.326837182E0,3.448754311E0
8.343327092E0,-6.519675255E-2,-1.209928632E0,3.510075569E0
8.348149123E0,-7.392650843E-2,-1.094813943E0,3.552312851E0
8.352971154E0,-7.347643375E-2,-9.792096615E-1,3.581365585E0
8.357793186E0,-9.981781244E-2,-8.523603082E-1,3.615073204E0
8.362615217E0,-8.378601074E-2,-7.500395775E-1,3.623453140E0
8.367437248E0,-1.054633260E-1,-6.196557879E-1,3.636323929E0
8.372259332E0,-1.076200008E-1,-4.921928048E-1,3.640443802E0
8.377081363E0,-1.093829870E-1,-3.569141328E-1,3.632161140E0
8.381903394E0,-9.881663322E-2,-2.339318991E-1,3.619785309E0
8.386725425E0,-1.046698689E-1,-1.088281274E-1,3.591303825E0
8.391547457E0,-1.138058901E-1,2.331528068E-2,3.553845406E0
8.396369488E0,-1.261445880E-1,1.208223701E-1,3.500205994E0
8.401191519E0,-1.201463342E-1,2.544266284E-1,3.457851410E0
8.406013550E0,-1.196546555E-1,3.883749247E-1,3.395665169E0
8.410835634E0,-1.174011827E-1,5.205216408E-1,3.314846039E0
8.415657665E0,-1.169006228E-1,6.330451965E-1,3.240487099E0
8.420479696E0,-1.132666767E-1,7.501442432E-1,3.166601181E0
8.425301727E0,-1.028182805E-1,8.803672194E-1,3.091991425E0
8.430123759E0,-9.374859929E-2,9.999561906E-1,3.008295059E0
8.434945790E0,-9.315234423E-2,1.110395432E0,2.908370018E0
8.439767873E0,-1.008859575E-1,1.228569031E0,2.820918083E0
8.444589904E0,-9.050846100E-2,1.343959093E0,2.737591743E0
8.449411936E0,-9.419140220E-2,1.460357308E0,2.636898994E0
8.454233967E0,-9.622251987E-2,1.586312532E0,2.552349091E0
8.459055998E0,-9.896478057E-2,1.681444526E0,2.460065842E0
8.463878029E0,-8.437719941E-2,1.784170032E0,2.364865303E0
8.468700061E0,-9.063616395E-2,1.894635558E0,2.266794205E0
8.473522144E0,-8.297681808E-2,2.013044834E0,2.163517952E0
8.478344175E0,-6.134042144E-2,2.107217312E0,2.069417000E0
8.483166207E0,-5.684328079E-2,2.202476978E0,1.974976540E0
8.487988238E0,-6.464502215E-2,2.298897505E0,1.875456810E0
8.492810269E0,-5.965545774E-2,2.400157928E0,1.781668663E0
8.497632300E0,-6.942403316E-2,2.462186575E0,1.691270828E0
8.502454332E0,-5.579656363E-2,2.568739891E0,1.587578773E0
8.507276363E0,-5.577021837E-2,2.652890205E0,1.512482643E0
8.512098446E0,-5.752399564E-2,2.724312305E0,1.436126709E0
8.516920477E0,-3.840893507E-2,2.808071136E0,1.363331795E0
8.521742509E0,-4.039943218E-2,2.882730007E0,1.282200813E0
8.526564540E0,-3.726872802E-2,2.964965105E0,1.234601021E0
8.531386571E0,-5.062124133E-2,3.029700756E0,1.169160843E0
8.536208602E0,-4.711106420E-2,3.103167295E0,1.115801811E0
8.541030634E0,-3.757712245E-2,3.169814587E0,1.067388535E0
8.545852717E0,-4.608860612E-2,3.239119291E0,1.031102180E0
8.550674748E0,-4.050463438E-2,3.283486128E0,9.985818863E-1
8.555496779E0,-5.554360151E-2,3.360239029E0,9.710435867E-1
8.560318811E0,-6.376090646E-2,3.432113171E0,9.592266083E-1
8.565140842E0,-5.931174755E-2,3.473972082E0,9.332628250E-1
8.569962873E0,-5.183589458E-2,3.550186157E0,9.194383621E-1
8.574784904E0,-6.165817380E-2,3.592522860E0,9.153614044E-1
8.579606936E0,-4.938706756E-2,3.641433954E0,9.150028229E-1
8.584429019E0,-4.619783163E-2,3.701531649E0,9.266929626E-1
8.589251050E0,-5.925473571E-2,3.751189470E0,9.408483505E-1
8.594073082E0,-6.343486905E-2,3.803325415E0,9.275255203E-1
8.598895113E0,-6.711155176E-2,3.838630676E0,9.392795563E-1
8.603717144E0,-6.428200006E-2,3.909524202E0,9.604835510E-1
8.608539175E0,-5.494913459E-2,3.939354420E0,9.827136993E-1
8.613361207E0,-5.454781651E-2,3.993686438E0,1.001105309E0
8.618183290E0,-5.709695816E-2,4.037601471E0,1.026305199E0
8.623005321E0,-4.340094328E-2,4.103192806E0,1.060600281E0
8.627827352E0,-6.355279684E-2,4.154437065E0,1.082384109E0
8.632649384E0,-6.132912636E-2,4.189933777E0,1.101096153E0
8.637471415E0,-5.937662721E-2,4.231067657E0,1.126199722E0
8.642293446E0,-5.048078299E-2,4.266900063E0,1.151579857E0
8.647115477E0,-5.243846774E-2,4.328333378E0,1.177107811E0
8.651937561E0,-4.723104835E-2,4.361408710E0,1.196675301E0
8.656759592E0,-4.676803946E-2,4.398257256E0,1.223283768E0
8.661581623E0,-5.328980088E-2,4.448325157E0,1.246051788E0
8.666403654E0,-4.883384705E-2,4.499423504E0,1.274348259E0
8.671225686E0,-4.643383622E-2,4.545504570E0,1.302075386E0
8.676047717E0,-4.487830400E-2,4.560134888E0,1.317119598E0
8.680869748E0,-2.388167381E-2,4.601848125E0,1.349249840E0
8.685691779E0,-4.060456157E-2,4.636933327E0,1.361195564E0
8.690513863E0,-4.130217433E-2,4.671347618E0,1.392306328E0
8.695335894E0,-4.264822602E-2,4.698987961E0,1.414904594E0
8.700157925E0,-4.944881797E-2,4.732973099E0,1.413360596E0
8.704979957E0,-3.529000282E-2,4.761183262E0,1.436503410E0
8.709801988E0,-4.203134775E-2,4.791992664E0,1.451954842E0
8.714624019E0,-4.703676701E-2,4.815767288E0,1.487071037E0
8.719446050E0,-4.902726412E-2,4.837198257E0,1.489108086E0
8.724268134E0,-4.083567858E-2,4.858665466E0,1.495058060E0
8.729090165E0,-2.735501528E-2,4.886057854E0,1.515534401E0
8.733912196E0,-3.725868464E-2,4.888248444E0,1.533684731E0
8.738734227E0,-3.824102879E-2,4.911877632E0,1.550645828E0
8.743556259E0,-5.307805538E-2,4.919738770E0,1.568649292E0
8.748378290E0,-3.039279580E-2,4.928606033E0,1.576906204E0
8.753200321E0,-2.877992392E-2,4.931294441E0,1.592096329E0
8.758022352E0,-4.358610511E-2,4.938530445E0,1.608167648E0
8.762844436E0,-3.531542420E-2,4.940678596E0,1.623843193E0
8.767666467E0,-3.279563785E-2,4.931797981E0,1.633141518E0
8.772488498E0,-3.240311146E-2,4.921384335E0,1.650338173E0
8.777310529E0,-4.626110196E-2,4.908275604E0,1.655117035E0
8.782132561E0,-3.966107965E-2,4.912799358E0,1.661844254E0
8.786954592E0,-4.733413458E-2,4.896623611E0,1.666890144E0
8.791776623E0,-3.703004122E-2,4.881273746E0,1.670264244E0
8.796598654E0,-2.798575163E-2,4.842886448E0,1.675604820E0
8.801420738E0,-5.250436068E-2,4.825674057E0,1.676950455E0
8.806242769E0,-4.249492288E-2,4.796134949E0,1.671942711E0
8.811064800E0,-4.580149055E-2,4.749514103E0,1.672601700E0
8.815886832E0,-4.216518998E-2,4.714545250E0,1.673023224E0
8.820708863E0,-4.001581669E-2,4.695987225E0,1.664908409E0
8.825530894E0,-5.968979001E-2,4.657939911E0,1.659069061E0
8.830352925E0,-4.143491387E-2,4.618422031E0,1.644883156E0
8.835175009E0,-4.625299573E-2,4.579846859E0,1.626044273E0
8.839997040E0,-5.388125777E-2,4.527898788E0,1.624173164E0
8.844819071E0,-5.826321244E-2,4.474546909E0,1.605894089E0
8.849641102E0,-6.063798070E-2,4.435380936E0,1.591678619E0
8.854463134E0,-5.623078346E-2,4.367411613E0,1.568511963E0
8.859285165E0,-5.460602045E-2,4.307781219E0,1.554477692E0
8.864107196E0,-5.337950587E-2,4.256526470E0,1.544921875E0
8.868929279E0,-5.253556371E-2,4.198180676E0,1.529245377E0
8.873751311E0,-4.843392968E-2,4.137655258E0,1.499276161E0
8.878573342E0,-4.699021578E-2,4.075010777E0,1.492222786E0
8.883395373E0,-6.134289503E-2,4.009080887E0,1.491453171E0
8.888217404E0,-6.632557511E-2,3.949555874E0,1.463682175E0
8.893039436E0,-4.997101426E-2,3.875117779E0,1.428274155E0
8.897861467E0,-5.166998506E-2,3.812182665E0,1.410495758E0
8.902683498E0,-6.534475088E-2,3.748890400E0,1.405694962E0
8.907505582E0,-4.312703013E-2,3.679368973E0,1.379349709E0
8.912327613E0,-5.075618625E-2,3.608611107E0,1.363935471E0
8.917149644E0,-5.464714766E-2,3.552289724E0,1.339274406E0
8.921971675E0,-7.028311491E-2,3.491494656E0,1.316308022E0
8.926793707E0,-6.655368209E-2,3.400079250E0,1.293970108E0
8.931615738E0,-4.578575492E-2,3.339233875E0,1.275991440E0
8.936437769E0,-3.898835182E-2,3.288791180E0,1.246966362E0
8.941259852E0,-4.851949215E-2,3.227472782E0,1.210628510E0
8.946081884E0,-5.636769533E-2,3.154217005E0,1.181410789E0
8.950903915E0,-4.076126218E-2,3.063029051E0,1.136988640E0
8.955725946E0,-3.782808781E-2,2.980069399E0,1.109940529E0
8.960547977E0,-3.445628285E-2,2.905453920E0,1.072892189E0
8.965370009E0,-4.011106491E-2,2.815590620E0,1.043785095E0
8.970192040E0,-4.988422990E-2,2.731059790E0,1.021441460E0
8.975014071E0,-4.370290041E-2,2.644910574E0,9.915943146E-1
8.979836102E0,-3.244251013E-2,2.547876358E0,9.863624573E-1
8.984658186E0,-2.913093567E-2,2.476950169E0,9.651927948E-1
8.989480217E0,-3.140023351E-2,2.401367903E0,9.638385773E-1
8.994302248E0,-4.046627879E-2,2.326032162E0,9.500741959E-1
8.999124279E0,-2.675437927E-2,2.240489960E0,9.619522095E-1
9.003946311E0,-4.031050205E-2,2.144969225E0,9.671878815E-1
9.008768342E0,-3.228139877E-2,2.086036682E0,9.966554642E-1
9.013590373E0,-5.169832706E-2,2.011283875E0,1.016872406E0
9.018412457E0,-5.800187588E-2,1.900796771E0,1.039722443E0
9.023234488E0,-4.787749052E-2,1.806034565E0,1.063940048E0
9.028056519E0,-5.479872227E-2,1.735281467E0,1.094186783E0
9.032878550E0,-6.437990069E-2,1.668216467E0,1.130340576E0
9.037700582E0,-6.729906797E-2,1.591823578E0,1.173460007E0
9.042522613E0,-6.481519341E-2,1.483744621E0,1.229352951E0
9.047344644E0,-6.416124105E-2,1.395232201E0,1.282402992E0
9.052166675E0,-8.317440748E-2,1.314258337E0,1.337302208E0
9.056988759E0,-1.028164029E-1,1.208727956E0,1.386840820E0
9.061810790E0,-8.745425940E-2,1.117966175E0,1.436922073E0
9.066632821E0,-9.075632691E-2,1.028782129E0,1.512391090E0
9.071454852E0,-1.042920053E-1,9.304215908E-1,1.584495544E0
9.076276884E0,-1.137219667E-1,8.299681544E-1,1.647267342E0
9.081098915E0,-1.178348958E-1,7.214118242E-1,1.710221291E0
9.085920946E0,-1.155621111E-1,6.355848312E-1,1.792284012E0
9.090742977E0,-1.194917560E-1,5.284485817E-1,1.873321533E0
9.095565061E0,-1.227329075E-1,4.276454747E-1,1.952414513E0
9.100387092E0,-1.192943752E-1,3.235113025E-1,2.034319878E0
9.105209123E0,-1.270190477E-1,2.099225372E-1,2.139320374E0
9.110031154E0,-1.265927553E-1,8.550822735E-2,2.220777512E0
9.114853186E0,-1.323188841E-1,-1.174741983E-2,2.308580399E0
9.119675217E0,-1.237842441E-1,-1.226509213E-1,2.396743774E0
9.124497300E0,-1.294898689E-1,-2.474081516E-1,2.494832039E0
9.129319332E0,-1.422039568E-1,-3.682846129E-1,2.580136299E0
9.134141363E0,-1.390793025E-1,-4.842825532E-1,2.649099350E0
9.138963394E0,-1.355207860E-1,-5.944948196E-1,2.749567032E0
9.143785425E0,-1.279887557E-1,-7.182087898E-1,2.815793991E0
9.148607457E0,-1.306467950E-1,-8.364791870E-1,2.882509232E0
9.153429488E0,-1.267260611E-1,-9.747318029E-1,2.941391945E0
9.158251519E0,-1.472567916E-1,-1.112757444E0,2.992486000E0
9.163073602E0,-1.419244409E-1,-1.216066480E0,3.059747696E0
9.167895634E0,-1.478298903E-1,-1.350636959E0,3.098990440E0
9.172717665E0,-1.482518911E-1,-1.479607224E0,3.140187263E0
9.177539696E0,-1.456020772E-1,-1.604304790E0,3.161879539E0
9.182361727E0,-1.482230723E-1,-1.731985807E0,3.191633224E0
9.187183759E0,-1.466704905E-1,-1.844965458E0,3.212788582E0
9.192005790E0,-1.516858041E-1,-1.975619316E0,3.221840858E0
9.196827821E0,-1.561844945E-1,-2.090543747E0,3.235602379E0
9.201649904E0,-1.376210749E-1,-2.229222536E0,3.236208916E0
9.206471936E0,-1.283554435E-1,-2.352305651E0,3.227344513E0
9.211293967E0,-1.487756073E-1,-2.489714622E0,3.205510139E0
9.216115998E0,-1.450897157E-1,-2.599705219E0,3.186354637E0
9.220938029E0,-1.366838813E-1,-2.700182915E0,3.169932365E0
9.225760061E0,-1.475083530E-1,-2.830553532E0,3.157510757E0
9.230582092E0,-1.549284160E-1,-2.958461285E0,3.122862816E0
9.235404123E0,-1.495003104E-1,-3.063563824E0,3.106720924E0
9.240226207E0,-1.432691216E-1,-3.166103125E0,3.067298889E0
9.245048238E0,-1.471249461E-1,-3.288674593E0,3.020210266E0
9.249870269E0,-1.395675242E-1,-3.378570318E0,2.969111443E0
9.254692300E0,-1.553092301E-1,-3.482338428E0,2.923626900E0
9.259514332E0,-1.513837278E-1,-3.591382265E0,2.863451004E0
9.264336363E0,-1.564946473E-1,-3.698383808E0,2.794619560E0
9.269158394E0,-1.504060626E-1,-3.803163528E0,2.748229027E0
9.273980425E0,-1.497641206E-1,-3.882792473E0,2.681235313E0
9.278802509E0,-1.545981467E-1,-3.977732182E0,2.610395432E0
9.283624540E0,-1.386012733E-1,-4.060253143E0,2.536890030E0
9.288446571E0,-1.351885498E-1,-4.156389713E0,2.457095146E0
9.293268602E0,-1.395251453E-1,-4.228906631E0,2.382954597E0
9.298090634E0,-1.300719678E-1,-4.314546108E0,2.296440125E0
9.302912665E0,-1.293797493E-1,-4.396372318E0,2.216646194E0
9.307734696E0,-1.207217872E-1,-4.449045658E0,2.127943993E0
9.312556727E0,-1.351028681E-1,-4.523708344E0,2.042185783E0
9.317378811E0,-1.269073188E-1,-4.573514462E0,1.946130753E0
9.322200842E0,-1.224614084E-1,-4.655557632E0,1.857563019E0
9.327022873E0,-1.216213703E-1,-4.701563358E0,1.759670258E0
9.331844904E0,-1.303551197E-1,-4.753055573E0,1.677352905E0
9.336666936E0,-9.836837649E-2,-4.812198162E0,1.580563545E0
9.341488967E0,-1.019756794E-1,-4.854920864E0,1.491885185E0
9.346310998E0,-9.343940020E-2,-4.900057316E0,1.393150330E0
9.351133029E0,-8.216577768E-2,-4.952317238E0,1.310550690E0
9.355955113E0,-8.370327950E-2,-4.993487358E0,1.237844467E0
9.360777144E0,-7.525897026E-2,-5.019902706E0,1.143801689E0
9.365599175E0,-6.872931123E-2,-5.061340809E0,1.041427612E0
9.370421207E0,-6.895619631E-2,-5.091288090E0,9.747047424E-1
9.375243238E0,-6.509545445E-2,-5.121567726E0,8.920049667E-1
9.380065269E0,-5.239227414E-2,-5.132954597E0,8.074932098E-1
9.384887300E0,-5.121111870E-2,-5.164852142E0,7.329616547E-1
9.389709384E0,-4.827606678E-2,-5.182396412E0,6.585855484E-1
9.394531415E0,-5.091738701E-2,-5.210715294E0,5.842370987E-1
9.399353446E0,-3.758478165E-2,-5.230597496E0,5.085382462E-1
9.404175477E0,-3.818777204E-2,-5.241942406E0,4.360485077E-1
9.408997509E0,-4.798394442E-2,-5.261499405E0,3.773918152E-1
9.413819540E0,-3.947302699E-2,-5.271311760E0,3.335952759E-1
9.418641571E0,-4.503291845E-2,-5.295243740E0,2.638463974E-1
9.423463602E0,-3.839236498E-2,-5.310575008E0,2.206234932E-1
9.428285686E0,-3.153261542E-2,-5.329277039E0,1.703224182E-1
9.433107717E0,-3.643915057E-2,-5.350148678E0,1.164159775E-1
9.437929748E0,-3.163686395E-2,-5.365969181E0,8.264923096E-2
9.442751779E0,-2.910667658E-2,-5.376811028E0,3.668308258E-2
9.447573811E0,-1.101049781E-2,-5.377917290E0,2.145719528E-2
9.452395842E0,-1.921370625E-2,-5.395612717E0,-1.093673706E-2
9.457217873E0,-1.430743933E-2,-5.411954880E0,-4.861736298E-2
9.462039904E0,-2.497693896E-2,-5.415057659E0,-7.606744766E-2
9.466861936E0,-2.615198493E-2,-5.442016602E0,-9.931564331E-2
9.471684019E0,-2.150240541E-2,-5.459368229E0,-1.231913567E-1
9.476506050E0,-2.418458462E-2,-5.470794201E0,-1.428923607E-1
9.481328082E0,-1.505875587E-2,-5.452416897E0,-1.644291878E-1
9.486150113E0,-2.290043235E-2,-5.478380203E0,-1.615319252E-1
9.490972144E0,-3.091725707E-2,-5.486574650E0,-1.939301491E-1
9.495794175E0,-1.638481021E-2,-5.489005566E0,-2.042112350E-1
9.500616207E0,-2.000814676E-2,-5.501235008E0,-2.115168571E-1
9.505438290E0,-2.748465538E-2,-5.516155720E0,-2.361001968E-1
9.510260321E0,-7.652759552E-3,-5.526667595E0,-2.276806831E-1
9.515082352E0,-1.788377762E-2,-5.518493176E0,-2.376165390E-1
9.519904384E0,-2.237114310E-2,-5.520361423E0,-2.419476509E-1
9.524726415E0,-1.628041267E-2,-5.516757965E0,-2.250885963E-1
9.529548446E0,-2.465170622E-2,-5.522128105E0,-2.263760567E-1
9.534370477E0,-2.600222826E-2,-5.529299259E0,-2.218465805E-1
9.539192509E0,-1.793214679E-2,-5.534790039E0,-2.053980827E-1
9.544014592E0,-2.191925049E-2,-5.527859688E0,-1.877393723E-1
9.548836623E0,-2.477020025E-2,-5.524139404E0,-1.699461937E-1
9.553658654E0,-2.404394746E-2,-5.517715931E0,-1.447367668E-1
9.558480686E0,-1.615899801E-2,-5.520596504E0,-1.179914474E-1
9.563302717E0,-1.060971618E-2,-5.494596481E0,-9.676694870E-2
9.568124748E0,-2.049160004E-2,-5.484052181E0,-5.821704865E-2
9.572946779E0,-2.904641628E-2,-5.498544693E0,-3.094816208E-2
9.577768811E0,-3.501969576E-2,-5.471237183E0,7.433891296E-4
9.582590894E0,-1.091912389E-2,-5.460811615E0,3.578042984E-2
9.587412925E0,-2.607578039E-2,-5.437383175E0,7.303285599E-2
9.592234957E0,-3.133714199E-2,-5.430976868E0,1.031098366E-1
9.597056988E0,-2.792400122E-2,-5.416545391E0,1.440544128E-1
9.601879019E0,-2.416384220E-2,-5.388229847E0,1.816558838E-1
9.606701050E0,-2.243080735E-2,-5.379615784E0,2.112693787E-1
9.611523082E0,-1.079756021E-2,-5.351318359E0,2.485494614E-1
9.616345113E0,-2.384075522E-2,-5.322581291E0,2.912158966E-1
9.621167196E0,-3.287845850E-2,-5.306638241E0,3.298149109E-1
9.625989227E0,-3.067466617E-2,-5.273705482E0,3.680562973E-1
9.630811259E0,-3.165683150E-2,-5.240653515E0,4.132280350E-1
9.635633290E0,-3.104227781E-2,-5.192007542E0,4.498643875E-1
9.640455321E0,-2.881816030E-2,-5.172112465E0,4.960069656E-1
9.645277352E0,-3.692865372E-2,-5.118909836E0,5.386037827E-1
9.650099384E0,-3.150931001E-2,-5.099525452E0,5.957155228E-1
9.654921415E0,-3.890007734E-2,-5.047008514E0,6.541986465E-1
9.659743498E0,-3.164997697E-2,-5.008160114E0,7.058057785E-1
9.664565529E0,-3.848946095E-2,-4.969897747E0,7.649393082E-1
9.669387561E0,-4.862204194E-2,-4.917979717E0,8.412227631E-1
9.674209592E0,-5.498746037E-2,-4.868085861E0,9.036407471E-1
9.679031623E0,-6.120967865E-2,-4.809489250E0,9.629869461E-1
9.683853654E0,-5.547180772E-2,-4.761463165E0,1.036066055E0
9.688675686E0,-5.924943089E-2,-4.703752995E0,1.099004745E0
9.693497717E0,-6.063154340E-2,-4.631700039E0,1.165008545E0
9.698319800E0,-6.457397342E-2,-4.569270134E0,1.232888222E0
9.703141832E0,-5.909055471E-2,-4.515299320E0,1.301461220E0
9.707963863E0,-5.978968740E-2,-4.447165012E0,1.356420517E0
9.712785894E0,-6.914076209E-2,-4.380519390E0,1.436050415E0
9.717607925E0,-7.646042109E-2,-4.296200275E0,1.480535507E0
9.722429957E0,-7.809019089E-2,-4.234970570E0,1.532980919E0
9.727251988E0,-7.536104321E-2,-4.172861099E0,1.592136383E0
9.732074019E0,-7.907471061E-2,-4.098001480E0,1.640088081E0
9.736896102E0,-7.724565268E-2,-4.019987583E0,1.695962906E0
9.741718134E0,-7.589337230E-2,-3.935223579E0,1.737019539E0
9.746540165E0,-8.695232868E-2,-3.848535061E0,1.785981178E0
9.751362196E0,-8.415976167E-2,-3.762256861E0,1.845184326E0
9.756184227E0,-8.779415488E-2,-3.684693813E0,1.878734589E0
9.761006259E0,-7.515698671E-2,-3.589580059E0,1.927291870E0
9.765828290E0,-7.968527079E-2,-3.506720066E0,1.959717751E0
9.770650321E0,-8.934417367E-2,-3.405012369E0,2.010673523E0
9.775472404E0,-8.970353007E-2,-3.331047773E0,2.032320976E0
9.780294436E0,-8.557298779E-2,-3.224941254E0,2.072446823E0
9.785116467E0,-8.401781321E-2,-3.117694616E0,2.110674858E0
9.789938498E0,-8.857369423E-2,-3.047466278E0,2.131447792E0
9.794760529E0,-9.315192699E-2,-2.953175306E0,2.157459259E0
9.799582561E0,-9.180584550E-2,-2.840729952E0,2.167164803E0
9.804404592E0,-7.473701239E-2,-2.735120535E0,2.183262825E0
9.809226623E0,-8.141335845E-2,-2.636231899E0,2.193769455E0
9.814048654E0,-7.947325706E-2,-2.523640156E0,2.201064110E0
9.818870738E0,-7.001885772E-2,-2.401999712E0,2.206319809E0
9.823692769E0,-7.458734512E-2,-2.309407234E0,2.210707664E0
9.828514800E0,-8.702200651E-2,-2.217055082E0,2.203473091E0
9.833336832E0,-7.392448187E-2,-2.104475737E0,2.203728676E0
9.838158863E0,-6.626406312E-2,-2.007393360E0,2.203093529E0
9.842980894E0,-5.926048756E-2,-1.882667780E0,2.200379372E0
