"Time (s)","Linear Acceleration x (m/s^2)","Linear Acceleration y (m/s^2)","Linear Acceleration z (m/s^2)"
1.086159000E-1,0.000000000E0,0.000000000E0,0.000000000E0
1.134379320E-1,1.829415560E-3,-3.651332855E-2,-7.409858704E-2
1.182599630E-1,1.695436239E-2,-5.861234665E-2,-1.307101250E-1
1.230820460E-1,3.306077421E-2,-1.049823761E-1,-1.266646385E-1
1.279040770E-1,6.266477704E-2,-1.339221001E-1,-9.343767166E-2
1.327261090E-1,9.431860596E-2,-1.418962479E-1,-1.043338776E-1
1.375481400E-1,1.103641018E-1,-1.345176697E-1,-1.123671532E-1
1.423701710E-1,8.442823589E-2,-1.070566177E-1,-5.657243729E-2
1.471922020E-1,7.304126024E-2,-6.018400192E-2,9.428501129E-3
1.520142340E-1,6.991732866E-2,-2.451038361E-2,9.300088882E-2
1.568363170E-1,8.176297694E-2,1.279926300E-2,1.549959183E-1
1.616583480E-1,5.470082909E-2,4.028511047E-2,2.034864426E-1
1.664803800E-1,1.771120727E-2,8.015060425E-2,2.067561150E-1
1.713024110E-1,-3.812125325E-2,1.176009178E-1,2.177548409E-1
1.761244420E-1,-1.010577977E-1,1.398744583E-1,2.279462814E-1
1.809464730E-1,-1.197350323E-1,1.301350594E-1,2.227067947E-1
1.857685570E-1,-9.684190154E-2,1.206669807E-1,1.913781166E-1
1.905905880E-1,-4.480120540E-2,1.238055229E-1,1.644172668E-1
1.954126190E-1,-3.286275268E-2,1.275672913E-1,1.526455879E-1
2.002346500E-1,-3.184416890E-2,1.057372093E-1,1.188254356E-1
2.050566820E-1,-5.281984806E-2,8.106708527E-2,6.261873245E-2
2.098787130E-1,-7.237580419E-2,4.664897919E-2,3.275585175E-2
2.147007960E-1,-1.102087200E-1,1.301574707E-2,5.083084106E-4
2.195228270E-1,-1.143725812E-1,-1.201248169E-2,-6.050300598E-2
2.243448590E-1,-1.611522138E-1,-2.650737762E-2,-1.310429573E-1
2.291668900E-1,-2.471019030E-1,-1.491498947E-2,-1.303625107E-1
2.339889210E-1,-3.113135695E-1,-9.425163269E-3,-1.070423126E-1
2.388109520E-1,-3.133786321E-1,-4.207134247E-3,-6.167221069E-2
2.436329840E-1,-2.669208348E-1,3.421068192E-2,-6.398677826E-3
2.484550670E-1,-2.161731720E-1,8.029699326E-2,4.607200623E-2
2.532770980E-1,-2.283446491E-1,1.072926521E-1,1.132898331E-1
2.580991300E-1,-2.595051229E-1,1.550097466E-1,1.847367287E-1
2.629211610E-1,-2.916050851E-1,1.753325462E-1,2.279434204E-1
2.677431920E-1,-2.825579643E-1,1.853842735E-1,2.391548157E-1
2.725652230E-1,-2.795236409E-1,1.900873184E-1,2.449164391E-1
2.773873070E-1,-2.375879586E-1,1.803689003E-1,2.313742638E-1
2.822093380E-1,-2.003003955E-1,1.392455101E-1,1.803216934E-1
2.870313690E-1,-1.832232773E-1,1.164650917E-1,1.380739212E-1
2.918534000E-1,-1.564328969E-1,9.295272827E-2,1.205935478E-1
2.966754320E-1,-1.408466697E-1,5.356264114E-2,9.688854218E-2
3.014974630E-1,-1.219776869E-1,1.619672775E-2,4.368877411E-2
3.063195460E-1,-5.896463990E-2,-1.320695877E-2,-4.672288895E-2
3.111415770E-1,-1.232415438E-2,-4.989290237E-2,-1.445207596E-1
3.159636090E-1,4.271626472E-3,-7.485151291E-2,-2.275938988E-1
3.207856400E-1,7.583171129E-3,-1.000719070E-1,-2.238359451E-1
3.256076710E-1,1.276639104E-2,-9.629058838E-2,-2.182655334E-1
3.304297020E-1,4.523706436E-2,-7.348346710E-2,-2.331790924E-1
3.352517340E-1,7.354861498E-2,-2.961349487E-2,-1.956191063E-1
3.400738170E-1,1.092290878E-1,-3.814697266E-4,-1.369690895E-1
3.448958480E-1,1.530858874E-1,5.077791214E-2,-5.165958405E-2
3.497178800E-1,1.977191865E-1,8.687782288E-2,8.000183105E-2
3.545399110E-1,2.406607270E-1,7.401180267E-2,2.092909813E-1
3.593619420E-1,3.008369207E-1,5.884075165E-2,2.189965248E-1
3.641839730E-1,3.463581502E-1,5.676364899E-2,1.817059517E-1
3.690060570E-1,3.341735005E-1,3.820323944E-2,1.640071869E-1
3.738280880E-1,2.628939152E-1,1.637983322E-2,1.478958130E-1
3.786501190E-1,2.289778888E-1,1.598834991E-2,1.427793503E-1
3.834721500E-1,2.129393220E-1,2.268171310E-2,7.662010193E-2
3.882941820E-1,2.029765248E-1,-3.530502319E-3,-8.516311646E-3
3.931162130E-1,1.543866694E-1,-4.438686371E-2,-5.713701248E-2
3.979382960E-1,1.068314612E-1,-6.787967682E-2,-9.341144562E-2
4.027603270E-1,5.088129640E-2,-5.882453918E-2,-1.801047325E-1
4.075823590E-1,-1.558342576E-2,-7.655620575E-2,-2.329020500E-1
4.124043900E-1,-4.651811719E-2,-1.100587845E-1,-2.017273903E-1
4.172264210E-1,-1.637026668E-2,-1.155281067E-1,-1.702961922E-1
4.220484520E-1,9.389281273E-3,-1.252532005E-1,-1.774225235E-1
4.268705360E-1,4.040020704E-2,-1.108007431E-1,-1.955018044E-1
4.316925670E-1,2.111634612E-2,-9.960603714E-2,-1.784329414E-1
4.365145980E-1,-8.830696344E-3,-7.161569595E-2,-1.278557777E-1
4.413366300E-1,-3.883758187E-2,-2.957916260E-2,-8.299732208E-2
4.461586610E-1,-6.065094471E-2,3.892898560E-3,-3.548240662E-2
4.509806920E-1,-5.576404929E-2,5.362081528E-2,1.946163177E-2
4.558027230E-1,-3.517597914E-2,9.327745438E-2,9.016895294E-2
4.606248070E-1,-4.298505187E-2,1.405420303E-1,1.553564072E-1
4.654468380E-1,-7.300633192E-2,1.810784340E-1,2.069330215E-1
4.702688690E-1,-8.621415496E-2,2.183818817E-1,2.310562134E-1
4.750909000E-1,-7.699063420E-2,2.335238457E-1,2.470593452E-1
4.799129320E-1,-8.242776990E-2,2.138381004E-1,2.006750107E-1
4.847349630E-1,-1.223288774E-1,1.880240440E-1,1.612739563E-1
4.895570460E-1,-1.538203955E-1,1.467857361E-1,1.062197685E-1
4.943790770E-1,-1.603586078E-1,1.246013641E-1,3.920841217E-2
4.992011090E-1,-1.918653846E-1,1.106934547E-1,-5.509042740E-2
5.040231400E-1,-2.138541639E-1,1.133451462E-1,-1.055655479E-1
5.088451710E-1,-1.507823467E-1,1.288199425E-1,-1.233983040E-1
5.136672020E-1,-1.466753781E-1,1.474809647E-1,-9.948921204E-2
5.184892860E-1,-1.501011550E-1,1.302270889E-1,-2.127313614E-2
5.233113170E-1,-1.325960755E-1,1.283478737E-1,-8.825778961E-3
5.281333480E-1,-1.121156216E-1,1.583013535E-1,-2.598142624E-2
5.329553800E-1,-1.100410819E-1,1.607227325E-1,-5.108356476E-3
5.377774110E-1,-9.428355098E-2,1.760983467E-1,6.406259537E-2
5.425994420E-1,-1.063730717E-1,2.302374840E-1,1.030015945E-1
5.474214730E-1,-1.260421872E-1,2.635941505E-1,1.605272293E-1
5.522435570E-1,-1.556677222E-1,2.633080482E-1,2.412476540E-1
5.570655880E-1,-1.950660348E-1,2.699308395E-1,2.633152008E-1
5.618876190E-1,-1.576138139E-1,2.633647919E-1,2.189779282E-1
5.667096500E-1,-1.054908931E-1,2.508850098E-1,1.621718407E-1
5.715316820E-1,-9.189254045E-2,1.994223595E-1,1.178669930E-1
5.763537130E-1,-8.558052778E-2,1.283006668E-1,9.185934067E-2
5.811757440E-1,-7.215151191E-2,6.971311569E-2,3.300762177E-2
5.859978270E-1,-5.991271138E-2,2.119731903E-2,-3.590488434E-2
5.908198590E-1,-6.402844191E-2,-5.529403687E-3,-7.567358017E-2
5.956418900E-1,-5.360126495E-2,-4.853105545E-2,-1.127190590E-1
6.004639210E-1,-4.646977782E-2,-8.048057556E-2,-1.398925781E-1
6.052859520E-1,-2.238863707E-2,-7.661485672E-2,-1.632099152E-1
6.101080360E-1,4.251867533E-3,-8.711719513E-2,-1.032485962E-1
6.149300670E-1,2.383565903E-2,-8.349752426E-2,-3.892755508E-2
6.197520980E-1,3.282019496E-2,-7.656288147E-2,-3.190279007E-2
6.245741300E-1,2.526199818E-2,-7.930660248E-2,-2.299308777E-3
6.293961610E-1,6.041198969E-3,-9.649801254E-2,5.808591843E-2
6.342181920E-1,1.554769278E-2,-1.113166809E-1,5.760765076E-2
6.390402750E-1,-1.183170080E-2,-8.449125290E-2,4.948616028E-3
6.438623070E-1,-5.095046759E-2,-7.675886154E-2,-1.117706299E-3
6.486843380E-1,-1.397865117E-1,-1.128921509E-1,4.376888275E-2
6.535063690E-1,-2.412817776E-1,-1.556706429E-1,1.812744141E-2
6.583284000E-1,-2.510126233E-1,-1.798744202E-1,-6.938123703E-2
6.631504320E-1,-2.562501729E-1,-2.151255608E-1,-1.425018311E-1
6.679724630E-1,-2.805680037E-1,-2.410426140E-1,-1.789412498E-1
6.727945460E-1,-2.787060738E-1,-2.813258171E-1,-2.052106857E-1
6.776165770E-1,-1.901474595E-1,-2.930569649E-1,-2.392716408E-1
6.824386090E-1,-1.105250120E-1,-3.097529411E-1,-2.181277275E-1
6.872606400E-1,7.797926664E-3,-3.446249962E-1,-8.624601364E-2
6.920826710E-1,1.039487422E-1,-3.691239357E-1,-2.481555939E-2
6.969047020E-1,1.615356207E-1,-3.167715073E-1,-8.200502396E-2
7.017267860E-1,1.427341104E-1,-2.512617111E-1,-8.226394653E-2
7.065488170E-1,6.930971146E-2,-1.776266098E-1,-5.744457245E-3
7.113708480E-1,3.284636140E-2,-9.369468689E-2,5.567216873E-2
7.161928800E-1,4.971429706E-2,-1.989793777E-2,9.397649765E-2
7.210149110E-1,7.682174444E-2,3.898191452E-2,1.260843277E-1
7.258369420E-1,8.452531695E-2,9.475326538E-2,1.901845932E-1
7.306589730E-1,8.149528503E-2,1.662406921E-1,2.268671989E-1
7.354810570E-1,9.882691503E-2,2.163953781E-1,2.293758392E-1
7.403030880E-1,7.969337702E-2,2.370657921E-1,2.075190544E-1
7.451251190E-1,6.966820359E-2,2.213416100E-1,1.698427200E-1
7.499471500E-1,2.500250936E-2,2.098298073E-1,1.129612923E-1
7.547691820E-1,1.379695535E-2,1.692943573E-1,6.431102753E-2
7.595912130E-1,2.802968025E-3,1.462898254E-1,2.735567093E-2
7.644132960E-1,6.447553635E-3,1.312232018E-1,-4.667997360E-2
7.692353270E-1,2.938073874E-2,9.801054001E-2,-9.468030930E-2
7.740573590E-1,3.712427616E-2,6.345176697E-2,-6.943082809E-2
7.788793900E-1,7.960271835E-2,4.770612717E-2,-2.016639709E-2
7.837014210E-1,1.161291301E-1,1.267671585E-2,8.994102478E-3
7.885234520E-1,1.322892159E-1,2.147150040E-2,3.476047516E-2
7.933455360E-1,8.864119649E-2,5.127286911E-2,5.824804306E-2
7.981675670E-1,3.635320067E-2,8.543395996E-2,6.391191483E-2
8.029895980E-1,-1.672136784E-2,9.909057617E-2,8.501625061E-2
8.078116300E-1,-8.626252413E-2,1.008758545E-1,8.211946487E-2
8.126336610E-1,-1.179635823E-1,1.040396690E-1,5.767965317E-2
8.174556920E-1,-1.657489836E-1,1.027598381E-1,3.666400909E-2
8.222777230E-1,-1.940355301E-1,9.471750259E-2,3.444051743E-2
8.270998070E-1,-1.972420812E-1,9.786701202E-2,1.989459991E-2
8.319218380E-1,-1.589040756E-1,8.118820190E-2,2.167558670E-2
8.367438690E-1,-1.220507324E-1,6.026172638E-2,1.592493057E-2
8.415659000E-1,-8.782148361E-2,4.325342178E-2,8.798599243E-3
8.463879320E-1,-6.916236877E-2,2.549409866E-2,-4.535198212E-3
8.512100150E-1,-7.286301255E-2,-1.421451569E-3,-2.510356903E-2
8.560320460E-1,-5.824184418E-2,-5.389213562E-3,-3.740549088E-2
8.608540770E-1,-5.622071028E-2,-1.866960526E-2,-7.232093811E-2
8.656761090E-1,-4.036390781E-2,-3.764200211E-2,-1.237001419E-1
8.704981400E-1,-7.015827298E-2,-2.547121048E-2,-1.451430321E-1
8.753201710E-1,-9.417918324E-2,-2.998781204E-2,-1.213722229E-1
8.801422020E-1,-6.970340014E-2,-2.492427826E-2,-8.600282669E-2
8.849642860E-1,-3.846377134E-2,-1.762390137E-2,-5.678319931E-2
8.897863170E-1,7.315278053E-4,-9.267330170E-3,-4.791688919E-2
8.946083480E-1,1.108032465E-2,1.672315598E-2,-1.412582397E-2
8.994303800E-1,3.614455462E-3,4.952669144E-2,-1.731014252E-2
9.042524110E-1,-1.328316331E-2,7.015419006E-2,-1.448631287E-3
9.090744420E-1,-5.625525117E-2,9.407091141E-2,1.199197769E-2
9.138965250E-1,-1.014963686E-1,1.023559570E-1,2.175283432E-2
9.187185570E-1,-1.573126018E-1,1.082754135E-1,1.684188843E-3
9.235405880E-1,-1.666423976E-1,9.767389297E-2,-3.971529007E-2
9.283626190E-1,-1.606598794E-1,1.146869659E-1,-6.438922882E-2
9.331846500E-1,-1.560596824E-1,1.163825989E-1,-6.536674500E-2
9.380066820E-1,-1.659106612E-1,9.931707382E-2,-7.961368561E-2
9.428287130E-1,-1.615557671E-1,1.063404083E-1,-9.276056290E-2
9.476507960E-1,-1.394669414E-1,8.618688583E-2,-7.985401154E-2
9.524728270E-1,-1.152483225E-1,8.645772934E-2,-4.578065872E-2
9.572948590E-1,-1.018895805E-1,6.658315659E-2,-1.794481277E-2
9.621168900E-1,-7.321715355E-2,4.203653336E-2,7.372856140E-3
9.669389210E-1,-6.364610791E-2,4.250192642E-2,2.546882629E-2
9.717609520E-1,-3.388711810E-2,3.097105026E-2,2.930164337E-2
9.765830360E-1,-4.691618681E-2,1.943254471E-2,8.296012878E-3
9.814050670E-1,-5.731442571E-2,9.027481079E-3,1.848220825E-3
9.862270980E-1,-5.681023002E-2,-2.079010010E-4,2.522039413E-2
9.910491300E-1,-4.188588262E-2,-1.189374924E-2,4.380559921E-2
9.958711610E-1,-3.203272820E-3,-9.443283081E-3,5.649423599E-2
1.000693192E0,2.119162679E-2,-2.425193787E-3,5.856132507E-2
1.005515275E0,-1.516252756E-2,3.233909607E-3,7.850980759E-2
1.010337307E0,-9.762343764E-2,2.412986755E-2,7.824325562E-2
1.015159338E0,-1.404970288E-1,4.235792160E-2,8.638095856E-2
1.019981369E0,-1.679891348E-1,8.172988892E-2,6.600904465E-2
1.024803400E0,-1.696621776E-1,7.802009583E-2,6.479930878E-2
1.029625432E0,-1.575180590E-1,6.838417053E-2,6.478500366E-2
1.034447463E0,-1.256072819E-1,4.582214355E-2,2.437686920E-2
1.039269546E0,-9.895876050E-2,3.067779541E-2,-3.360605240E-2
1.044091577E0,-4.770529270E-2,1.561164856E-3,-4.259014130E-2
1.048913609E0,-2.175882459E-2,-4.265928268E-2,-1.360082626E-2
1.053735640E0,-7.794767618E-3,-7.576465607E-2,-5.076885223E-3
1.058557671E0,-2.353852987E-2,-4.797649384E-2,-4.773426056E-2
1.063379755E0,-8.415985107E-2,-2.515840530E-2,-2.241039276E-2
1.068201786E0,-1.454739571E-1,4.493713379E-3,3.838491440E-2
1.073023817E0,-1.743462980E-1,1.008129120E-2,3.942823410E-2
1.077845848E0,-1.708138585E-1,2.268743515E-2,1.204490662E-2
1.082667880E0,-1.671590805E-1,3.765916824E-2,-6.383323669E-2
1.087489911E0,-1.228052676E-1,1.341295242E-2,-9.046936035E-2
1.092311942E0,-9.365513921E-2,-5.457353592E-2,-4.443740845E-2
1.097134025E0,-4.727721214E-2,-1.101264954E-1,-6.281566620E-2
1.101956057E0,5.742579699E-3,-1.294832230E-1,-1.475520134E-1
1.106778088E0,3.095561266E-2,-1.531152725E-1,-1.938424110E-1
1.111600119E0,1.909980178E-2,-1.311850548E-1,-1.723165512E-1
1.116422150E0,-2.128157020E-2,-9.370660782E-2,-1.571292877E-1
1.121244182E0,-4.038116336E-2,-5.614948273E-2,-1.542453766E-1
1.126066265E0,-6.817451119E-2,3.972530365E-3,-1.184339523E-1
1.130888296E0,-8.821409941E-2,3.777074814E-2,-6.653928757E-2
1.135710327E0,-8.410999179E-2,7.383155823E-2,-2.351903915E-2
1.140532359E0,-6.221523881E-2,1.003379822E-1,-8.353710175E-3
1.145354390E0,-6.545117497E-2,1.185379028E-1,-6.289482117E-4
1.150176421E0,-9.861308336E-2,1.379766464E-1,6.835937500E-3
1.154998505E0,-1.225687265E-1,1.407504082E-1,3.547334671E-2
1.159820536E0,-1.066107154E-1,1.399383545E-1,6.147098541E-2
1.164642567E0,-5.823847651E-2,1.390910149E-1,8.013916016E-2
1.169464598E0,-2.513405681E-2,1.345968246E-1,7.853412628E-2
1.174286630E0,-2.137506008E-2,1.229171753E-1,4.497289658E-2
1.179108661E0,-5.022835732E-2,1.123356819E-1,6.165885925E-2
1.183930692E0,-7.347619534E-2,1.371312141E-1,9.624719620E-2
1.188752775E0,-7.208094001E-2,1.364212036E-1,1.379857063E-1
1.193574807E0,-5.559000373E-2,1.246237755E-1,1.441402435E-1
1.198396838E0,-2.397635579E-2,1.432561874E-1,1.234087944E-1
1.203218869E0,-2.578738332E-2,1.553440094E-1,8.665561676E-2
1.208040900E0,-3.798663616E-2,1.277751923E-1,8.499240875E-2
1.212862932E0,-3.541204333E-2,1.083130836E-1,7.307434082E-2
1.217685015E0,-3.105124831E-2,9.218549728E-2,5.570602417E-2
1.222507046E0,-1.873478293E-2,5.695962906E-2,2.570486069E-2
1.227329077E0,1.708826423E-2,3.124856949E-2,-1.441812515E-2
1.232151109E0,3.950417042E-2,4.416465759E-3,-1.366806030E-2
1.236973140E0,4.747176170E-2,-8.048057556E-3,-5.650520325E-3
1.241795171E0,6.006699800E-2,-9.820461273E-3,-1.653242111E-2
1.246617255E0,6.174042821E-2,-9.346008301E-4,-1.122474670E-3
1.251439286E0,7.854777575E-2,6.687164307E-3,3.320837021E-2
1.256261317E0,7.692226768E-2,2.493286133E-2,3.526115417E-2
1.261083348E0,8.052369952E-2,5.729293823E-2,3.375005722E-2
1.265905380E0,4.636466503E-2,7.635784149E-2,6.310176849E-2
1.270727411E0,8.937865496E-3,9.163761139E-2,1.041445732E-1
1.275549494E0,1.203685999E-2,1.019144058E-1,1.378479004E-1
1.280371525E0,2.922779322E-2,1.072158813E-1,1.227593422E-1
1.285193557E0,6.032276154E-2,6.846570969E-2,9.365463257E-2
1.290015588E0,7.560324669E-2,4.776716232E-2,7.197475433E-2
1.294837619E0,6.101453304E-2,4.489469528E-2,6.484413147E-2
1.299659650E0,3.459680080E-2,3.978729248E-3,3.532600403E-2
1.304481734E0,2.254360914E-2,3.713130951E-3,-2.476406097E-2
1.309303765E0,-2.489686012E-4,-8.396148682E-3,-8.555936813E-2
1.314125796E0,-2.310490608E-2,-1.299381256E-3,-1.008820534E-1
1.318947827E0,-5.928486586E-2,-1.320266724E-2,-9.122562408E-2
1.323769859E0,-6.254112720E-2,-2.259922028E-2,-7.460021973E-2
1.328591890E0,-5.813550949E-2,-3.381252289E-3,-6.533432007E-2
1.333413921E0,-2.485036850E-2,-1.147508621E-2,-6.581354141E-2
1.338236005E0,-1.877439022E-2,-1.820421219E-2,-3.560543060E-2
1.343058036E0,1.021510363E-2,-3.198385239E-2,-6.905078888E-3
1.347880067E0,7.257878780E-3,-6.453704834E-2,1.191091537E-2
1.352702098E0,3.317749500E-2,-5.994176865E-2,2.211093903E-2
1.357524130E0,4.736208916E-2,-7.074356079E-2,2.616691589E-2
1.362346161E0,4.755342007E-2,-9.083414078E-2,2.289962769E-2
1.367168244E0,3.402614594E-2,-1.165289879E-1,1.234102249E-2
1.371990275E0,1.043432951E-2,-1.382613182E-1,-1.971387863E-2
1.376812307E0,4.252195358E-3,-1.417531967E-1,-4.585313797E-2
1.381634338E0,2.402901649E-3,-1.484713554E-1,-8.395242691E-2
1.386456369E0,1.807779074E-2,-1.677770615E-1,-1.102619171E-1
1.391278400E0,5.363237858E-2,-1.617264748E-1,-1.176333427E-1
1.396100432E0,5.562806129E-2,-1.600732803E-1,-1.383581161E-1
1.400922515E0,6.947433949E-2,-1.283087730E-1,-1.747493744E-1
1.405744546E0,3.348594904E-2,-1.225013733E-1,-1.981453896E-1
1.410566577E0,1.324361563E-2,-1.104187965E-1,-1.683063507E-1
1.415388609E0,-1.163786650E-2,-8.507061005E-2,-1.045947075E-1
1.420210640E0,-2.212482691E-2,-5.259704590E-2,-7.483148575E-2
1.425032723E0,-3.985530138E-2,-2.856636047E-2,-3.239870071E-2
1.429854755E0,-6.594741344E-2,4.816055298E-3,1.435947418E-2
1.434676786E0,-6.125128269E-2,5.211925507E-2,6.549119949E-2
1.439498817E0,-3.783035278E-2,7.167434692E-2,8.302307129E-2
1.444320848E0,-4.091441631E-2,1.074824333E-1,1.088747978E-1
1.449142880E0,-2.753055096E-2,1.272120476E-1,1.846513748E-1
1.453964911E0,-3.636538982E-3,1.309180260E-1,2.162885666E-1
1.458786994E0,3.799253702E-2,1.175441742E-1,2.089138031E-1
1.463609025E0,9.961110353E-2,1.109199524E-1,1.711978912E-1
1.468431057E0,1.042610407E-1,9.921932220E-2,1.270618439E-1
1.473253088E0,1.105542779E-1,7.424402237E-2,5.870437622E-2
1.478075119E0,8.415251970E-2,5.876111984E-2,-1.241445541E-2
1.482897150E0,5.735385418E-2,3.375005722E-2,-5.783510208E-2
1.487719234E0,7.541567087E-2,4.018306732E-3,-7.299804688E-2
1.492541265E0,8.227401972E-2,-2.985000610E-3,-9.385061264E-2
1.497363296E0,1.089194119E-1,-2.060174942E-2,-1.097269058E-1
1.502185327E0,1.350209713E-1,-3.565597534E-2,-9.934282303E-2
1.507007359E0,1.450107098E-1,-4.104089737E-2,-7.480287552E-2
1.511829390E0,1.127035022E-1,2.337932587E-3,-3.269863129E-2
1.516651473E0,1.082454026E-1,2.399635315E-2,1.857185364E-2
1.521473505E0,1.145863235E-1,5.367994308E-2,8.493471146E-2
1.526295536E0,1.075931191E-1,7.820844650E-2,1.223988533E-1
1.531117567E0,6.578388810E-2,9.762382507E-2,1.691532135E-1
1.535939598E0,2.242928743E-2,1.142568588E-1,1.872119904E-1
1.540761630E0,-4.050529003E-2,1.186652184E-1,1.981267929E-1
1.545583713E0,-5.639451742E-2,1.394252777E-1,1.663656235E-1
1.550405744E0,-5.648934841E-2,1.195378304E-1,9.457826614E-2
1.555227775E0,-3.600382805E-2,9.855127335E-2,3.882551193E-2
1.560049807E0,-4.954558611E-2,7.769584656E-2,1.912117004E-2
1.564871838E0,-2.907049656E-2,4.627466202E-2,1.383590698E-2
1.569693869E0,7.603228092E-3,1.512813568E-2,-4.245042801E-2
1.574515900E0,5.706095695E-2,-1.527309418E-3,-8.758020401E-2
1.579337984E0,8.253037930E-2,-4.055643082E-2,-9.912729263E-2
1.584160015E0,7.489305735E-2,-5.076599121E-2,-9.751939774E-2
1.588982046E0,3.563648462E-2,-5.731391907E-2,-7.811641693E-2
1.593804077E0,1.246994734E-2,-2.946710587E-2,-3.150272369E-2
1.598626109E0,-7.730841637E-3,-1.973342896E-2,5.917549133E-4
1.603448140E0,-3.092938662E-2,-1.130151749E-2,6.376266479E-3
1.608270171E0,-3.217250109E-2,-2.964019775E-3,-4.445552826E-3
1.613092255E0,-3.648024797E-2,2.543640137E-2,-1.747989655E-2
1.617914286E0,-6.871974468E-2,2.760076523E-2,-2.096939087E-2
1.622736317E0,-8.725899458E-2,1.208305359E-2,-1.146888733E-2
1.627558348E0,-7.545763254E-2,3.603935242E-2,-3.421401978E-2
1.632380380E0,-5.622607470E-2,2.561044693E-2,-5.693769455E-2
1.637202463E0,-4.736894369E-2,2.261543274E-2,-4.286098480E-2
1.642024494E0,-2.997487783E-2,-8.679866791E-3,-7.657051086E-3
1.646846525E0,-2.558070421E-2,-9.949207306E-3,1.649904251E-2
1.651668557E0,-1.167434454E-2,-2.875804901E-3,4.518032074E-2
1.656490588E0,8.254051208E-4,-1.013803482E-2,5.585527420E-2
1.661312619E0,2.365559340E-2,-1.264858246E-2,7.240438461E-2
1.666134650E0,3.532844782E-2,-3.776550293E-2,5.564975739E-2
1.670956734E0,7.501912117E-2,-6.508302689E-2,2.954959869E-2
1.675778765E0,7.953757048E-2,-9.696674347E-2,-9.374141693E-3
1.680600796E0,6.200313568E-2,-9.180212021E-2,-4.565477371E-2
1.685422827E0,2.734017372E-2,-8.668088913E-2,-5.676889420E-2
1.690244859E0,-3.397458792E-2,-8.987188339E-2,-6.907272339E-2
1.695066890E0,-6.481516361E-2,-8.356094360E-2,-6.709194183E-2
1.699888973E0,-1.022745967E-1,-4.518938065E-2,-8.781385422E-2
1.704711005E0,-1.391301751E-1,-1.071977615E-2,-6.332492828E-2
1.709533036E0,-1.706354022E-1,2.469682693E-2,-2.254152298E-2
1.714355067E0,-1.837354898E-1,4.788064957E-2,1.434755325E-2
1.719177098E0,-1.522720456E-1,8.978509903E-2,5.450534821E-2
1.723999130E0,-1.285901666E-1,1.276979446E-1,6.471681595E-2
1.728821161E0,-1.386173964E-1,1.509943008E-1,7.250928879E-2
1.733643244E0,-1.545656919E-1,1.491389275E-1,6.247758865E-2
1.738465275E0,-1.691237688E-1,1.295557022E-1,4.893159866E-2
1.743287307E0,-1.892080307E-1,9.832048416E-2,8.191108704E-3
1.748109338E0,-1.907275319E-1,7.581520081E-2,-5.248069763E-2
1.752931369E0,-1.854550838E-1,4.545593262E-2,-1.092624664E-1
1.757753400E0,-1.602787971E-1,5.585575104E-2,-1.217527390E-1
1.762575484E0,-8.076804876E-2,1.292657852E-2,-8.910417557E-2
1.767397515E0,6.480038166E-3,-1.893138885E-2,-4.717922211E-2
1.772219546E0,5.276805162E-2,-3.752565384E-2,-3.512334824E-2
1.777041577E0,9.151095152E-2,-2.640867233E-2,-1.468992233E-2
1.781863609E0,6.916916370E-2,-2.022695541E-2,-1.918840408E-2
1.786685640E0,5.840528011E-2,-1.076221466E-2,-5.598068237E-3
1.791507723E0,4.942163825E-2,-1.459217072E-2,1.874256134E-2
1.796329755E0,2.998757362E-2,-1.033210754E-2,2.531766891E-2
1.801151786E0,-2.301096916E-3,-3.970146179E-3,2.968168259E-2
1.805973817E0,-2.989739180E-2,5.740642548E-3,3.056955338E-2
1.810795848E0,-4.463404417E-2,-1.209545135E-2,2.683639526E-2
1.815617880E0,-3.127241135E-2,-2.039241791E-2,1.607131958E-2
1.820439963E0,9.978652000E-3,-2.980375290E-2,-2.311611176E-2
1.825261994E0,3.033608198E-2,-3.320932388E-2,-2.640628815E-2
1.830084025E0,3.830879927E-2,-4.836654663E-2,-2.502441406E-2
1.834906057E0,4.952138662E-2,-5.728244781E-2,-5.231237411E-2
1.839728088E0,5.935192108E-2,-6.586503983E-2,-9.029102325E-2
1.844550119E0,6.912010908E-2,-7.989215851E-2,-1.200237274E-1
1.849372202E0,1.134357452E-1,-9.225082397E-2,-8.931159973E-2
1.854194234E0,1.315032244E-1,-9.942960739E-2,-7.456254959E-2
1.859016265E0,1.556877792E-1,-7.774829865E-2,-5.189895630E-2
1.863838296E0,1.408566236E-1,-2.151823044E-2,-2.494525909E-2
1.868660327E0,8.604091406E-2,1.786136627E-2,1.346015930E-2
1.873482359E0,4.133468866E-2,5.944395065E-2,6.209278107E-2
1.878304390E0,-5.358159542E-3,9.593009949E-2,1.138854027E-1
1.883126473E0,4.158973694E-3,1.225404739E-1,1.427822113E-1
1.887948505E0,-8.839607239E-3,1.476264000E-1,1.359581947E-1
1.892770536E0,-1.684015989E-2,1.486330032E-1,9.848356247E-2
1.897592567E0,-3.760361671E-2,1.316919327E-1,5.909585953E-2
1.902414598E0,-4.609435797E-2,1.040029526E-1,2.024459839E-2
1.907236630E0,-5.063176155E-2,6.692934036E-2,-2.644968033E-2
1.912058713E0,-4.403269291E-2,4.304790497E-2,-9.629774094E-2
1.916880744E0,-7.516431808E-2,4.176378250E-2,-1.215114594E-1
1.921702775E0,-1.035308242E-1,2.256774902E-2,-1.060481071E-1
1.926524807E0,-1.268440485E-1,2.225589752E-2,-6.081104279E-2
1.931346838E0,-1.489551067E-1,2.758979797E-2,-3.824329376E-2
1.936168869E0,-1.889631748E-1,5.754423141E-2,-4.650688171E-2
1.940990952E0,-2.148272991E-1,6.207513809E-2,-5.856037140E-3
1.945812984E0,-1.804147363E-1,6.985569000E-2,5.246353149E-2
1.950635015E0,-1.442863941E-1,7.252979279E-2,7.612800598E-2
1.955457046E0,-8.752012253E-2,7.734727859E-2,8.907222748E-2
1.960279077E0,-7.418209314E-2,5.818748474E-2,1.139431000E-1
1.965101109E0,-5.280345678E-2,3.183269501E-2,1.269440651E-1
1.969923192E0,-3.294074535E-2,6.733894348E-3,1.197915077E-1
1.974745223E0,-2.034658194E-2,-7.427692413E-3,7.824945450E-2
1.979567255E0,-1.832038164E-2,-3.327035904E-2,3.345441818E-2
1.984389286E0,6.412565708E-3,-4.809713364E-2,2.809190750E-2
1.989211317E0,2.160763741E-2,-6.629419327E-2,6.188154221E-2
1.994033348E0,3.687596321E-2,-6.643962860E-2,1.345109940E-2
1.998855380E0,5.922424793E-2,-6.627368927E-2,-6.095027924E-2
2.003677463E0,3.397512436E-2,-1.121358871E-1,-6.850767136E-2
2.008499494E0,4.085659981E-2,-1.347546577E-1,-7.748556137E-2
2.013321525E0,6.061887741E-2,-1.379065514E-1,-1.127681732E-1
2.018143557E0,1.145165563E-1,-1.181468964E-1,-1.136698723E-1
2.022965588E0,1.144676208E-1,-1.220331192E-1,-9.462785721E-2
2.027787619E0,1.069563627E-1,-1.020746231E-1,-3.313922882E-2
2.032609702E0,1.169202328E-1,-9.869289398E-2,-2.102279663E-2
2.037431734E0,1.062159538E-1,-7.147645950E-2,-4.238462448E-2
2.042253765E0,8.442699909E-2,-4.201841354E-2,-4.353094101E-2
2.047075796E0,3.978329897E-2,-2.933311462E-2,-2.817583084E-2
2.051897827E0,1.522737741E-2,-8.916854858E-5,-1.540994644E-2
2.056719859E0,4.579365253E-3,3.133249283E-2,-7.586479187E-3
2.061541942E0,1.388221979E-2,1.853370667E-2,4.944324493E-3
2.066363973E0,1.579618454E-2,1.535224915E-2,1.021814346E-2
2.071186005E0,1.761931181E-2,9.888648987E-3,-1.225948334E-3
2.076008036E0,3.250044584E-2,1.865196228E-2,6.461143494E-3
2.080830067E0,1.764833927E-2,2.492952347E-2,3.192234039E-2
2.085652098E0,-5.666017532E-4,1.796483994E-2,4.899787903E-2
2.090474182E0,1.122945547E-2,3.461170197E-2,7.915973663E-2
2.095296213E0,1.356339455E-2,6.038618088E-2,9.504842758E-2
2.100118244E0,1.258480549E-2,5.844593048E-2,8.610391617E-2
2.104940275E0,-7.089257240E-3,6.581020355E-2,5.845928192E-2
2.109762307E0,-1.098752022E-2,7.774734497E-2,1.811122894E-2
2.114584338E0,-3.469407558E-2,8.590459824E-2,6.712913513E-3
2.119406369E0,-4.606115818E-2,8.673906326E-2,-2.105379105E-2
2.124228452E0,-3.562653065E-2,7.686281204E-2,-4.260301590E-2
2.129050484E0,-3.803098202E-2,7.414960861E-2,-8.408164978E-2
2.133872515E0,-3.062844276E-2,7.507991791E-2,-9.083843231E-2
2.138694546E0,-2.417099476E-2,5.225181580E-2,-8.444023132E-2
2.143516577E0,9.811758995E-3,2.846050262E-2,-8.165931702E-2
2.148338609E0,1.889288425E-2,1.921796799E-2,-1.003336906E-1
2.153160692E0,1.623338461E-2,2.086448669E-2,-1.213297844E-1
2.157982723E0,-1.372420788E-2,3.692960739E-2,-1.019902229E-1
2.162804755E0,-6.141692400E-2,5.881786346E-2,-4.607057571E-2
2.167626786E0,-7.116651535E-2,8.532285690E-2,3.658533096E-2
2.172448817E0,-2.550196648E-2,1.115188599E-1,5.927419662E-2
2.177270848E0,-1.006543636E-3,1.172986031E-1,1.007280350E-1
2.182092880E0,1.548331976E-2,9.682321548E-2,1.015319824E-1
2.186914963E0,6.118059158E-3,5.991315842E-2,8.445787430E-2
2.191736994E0,2.800452709E-2,3.282070160E-2,5.200910568E-2
2.196559025E0,2.510261536E-2,2.140331268E-2,2.210330963E-2
2.201381057E0,7.148027420E-3,2.316331863E-2,2.556657791E-2
2.206203088E0,-1.974308491E-2,2.255201340E-2,2.536106110E-2
2.211025171E0,-5.303227901E-2,1.123571396E-2,3.343486786E-2
2.215847202E0,-2.842885256E-2,-9.506225586E-3,-4.846096039E-3
2.220669234E0,-1.862466335E-3,-2.056074142E-2,-4.046964645E-2
2.225491265E0,-1.468598843E-2,-3.504276276E-2,-4.616785049E-2
2.230313296E0,-1.147806644E-3,-5.770969391E-2,-2.925777435E-2
2.235135327E0,5.317795277E-2,-7.557106018E-2,-2.062654495E-2
2.239957359E0,1.136907935E-1,-9.681653976E-2,-3.694438934E-2
2.244779442E0,1.318403184E-1,-1.001005173E-1,-3.524684906E-2
2.249601473E0,9.725445509E-2,-9.980487823E-2,-2.874422073E-2
2.254423505E0,4.344058037E-2,-8.295106888E-2,-3.050136566E-2
2.259245536E0,-2.237439156E-3,-6.632041931E-2,1.889419556E-2
2.264067567E0,-1.625412703E-2,-5.465126038E-2,4.425477982E-2
2.268889598E0,-1.800453663E-2,-3.963279724E-2,6.241035461E-2
2.273711682E0,-4.209393263E-2,-2.846431732E-2,8.770036697E-2
2.278533713E0,-7.304787636E-2,-5.783462524E-2,9.508466721E-2
2.283355744E0,-6.097966433E-2,-8.352804184E-2,1.060872078E-1
2.288177775E0,-3.837960958E-2,-1.043338776E-1,8.977317810E-2
2.292999807E0,-3.963923454E-2,-1.357655525E-1,9.032058716E-2
2.297821838E0,-1.111793518E-2,-1.918959618E-1,8.142232895E-2
2.302643921E0,3.643310070E-2,-2.500004768E-1,3.946352005E-2
2.307465952E0,1.078042984E-1,-3.110013008E-1,-2.243947983E-2
2.312287984E0,1.579156518E-1,-3.498516083E-1,-8.877849579E-2
2.317110015E0,2.083009481E-1,-4.188947678E-1,-1.227769852E-1
2.321932046E0,2.460011840E-1,-4.811005592E-1,-1.140189171E-1
2.326754077E0,3.114039600E-1,-5.162668228E-1,-1.400647163E-1
2.331576109E0,3.710334003E-1,-5.185346603E-1,-2.102541924E-1
2.336398192E0,3.627521992E-1,-5.143604279E-1,-1.568984985E-1
2.341220223E0,4.028264880E-1,-5.134615898E-1,-3.549194336E-2
2.346042255E0,3.703468144E-1,-4.777927399E-1,1.448392868E-2
2.350864286E0,3.160085380E-1,-5.083084106E-1,-1.003460884E-1
2.355686317E0,1.428781748E-1,-4.664149284E-1,-3.221120834E-1
2.360508400E0,-8.287751675E-2,-3.550291061E-1,-3.558363914E-1
2.365330432E0,-1.981590390E-1,-2.661876678E-1,-2.505207062E-1
2.370152463E0,-3.753916621E-1,-4.167275429E-1,2.451653481E-1
2.374974494E0,-8.519473076E-1,-1.412739277E0,1.929142952E0
2.379796525E0,-8.023709655E-1,-2.491188526E0,3.455217838E0
2.384618557E0,-2.593449652E-1,-2.372265339E0,2.202901840E0
2.389440588E0,-4.703288674E-1,-2.242991447E0,3.243651390E-1
2.394262671E0,-3.382038474E-1,-2.788144827E0,-1.537393093E0
2.399084702E0,-1.565106213E-1,-3.342681408E0,-2.558598518E0
2.403906734E0,1.705310345E-1,-4.296153069E0,-2.518756866E0
2.408728765E0,2.148614228E-1,-4.687301636E0,-2.061757565E0
2.413550796E0,2.115897834E-1,-4.689549446E0,-1.660924911E0
2.418372827E0,2.187632918E-1,-4.609153748E0,-1.455935955E0
2.423194859E0,2.009060383E-1,-4.533308983E0,-1.257793427E0
2.428016942E0,2.077367306E-1,-4.455885887E0,-1.066516876E0
2.432838973E0,2.084861100E-1,-4.387422562E0,-8.941063881E-1
2.437661005E0,2.250990272E-1,-4.325454712E0,-7.392444611E-1
2.442483036E0,2.352214158E-1,-4.279411316E0,-6.054129601E-1
2.447305067E0,2.271248698E-1,-4.257553577E0,-4.804978371E-1
2.452127150E0,2.165349275E-1,-4.250243664E0,-4.025087357E-1
2.456949182E0,2.046608925E-1,-4.240855217E0,-3.411765099E-1
2.461771213E0,1.926888525E-1,-4.254514694E0,-3.272199631E-1
2.466593244E0,1.850801855E-1,-4.275760651E0,-3.649778366E-1
2.471415275E0,1.767688841E-1,-4.294058800E0,-3.989825249E-1
2.476237307E0,1.518701017E-1,-4.323858261E0,-4.623203278E-1
2.481059390E0,1.528493762E-1,-4.351120472E0,-5.389270782E-1
2.485881421E0,1.253954768E-1,-4.379627228E0,-5.997419357E-1
2.490703452E0,9.885028005E-2,-4.388093948E0,-6.539745331E-1
2.495525484E0,9.526333213E-2,-4.395915031E0,-6.618642807E-1
2.500347515E0,7.691133022E-2,-4.374653339E0,-6.219863892E-1
2.505169546E0,6.465497613E-2,-4.349687099E0,-5.400962830E-1
2.509991577E0,5.302959681E-2,-4.311613083E0,-3.993444443E-1
2.514813661E0,4.964125156E-2,-4.272641182E0,-2.187051773E-1
2.519635692E0,1.658320427E-2,-4.225874424E0,1.986885071E-2
2.524457723E0,-2.595961094E-3,-4.167932510E0,2.793979645E-1
2.529279755E0,-3.269720078E-2,-4.113400459E0,5.659494400E-1
2.534101786E0,-6.612443924E-2,-4.055502415E0,8.665199280E-1
2.538923817E0,-9.416395426E-2,-4.001620770E0,1.152491570E0
2.543745900E0,-1.055763960E-1,-3.935436249E0,1.422832489E0
2.548567932E0,-1.369323730E-1,-3.894323111E0,1.702726364E0
2.553389963E0,-1.541225314E-1,-3.840512991E0,1.932581902E0
2.558211994E0,-1.648814678E-1,-3.761169910E0,2.144765854E0
2.563034025E0,-1.815265417E-1,-3.700994968E0,2.337025642E0
2.567856057E0,-1.826373339E-1,-3.623342514E0,2.476058006E0
2.572678140E0,-1.803165078E-1,-3.550126791E0,2.562036514E0
2.577500171E0,-1.755896211E-1,-3.475803375E0,2.602330208E0
2.582322202E0,-1.669815779E-1,-3.392357588E0,2.610235214E0
2.587144234E0,-1.588246822E-1,-3.310945034E0,2.577548981E0
2.591966265E0,-1.517374516E-1,-3.231861115E0,2.531871796E0
2.596788296E0,-1.426045299E-1,-3.121958494E0,2.461347580E0
2.601610380E0,-1.199193597E-1,-3.040174961E0,2.417428017E0
2.606432411E0,-1.079006791E-1,-2.914980888E0,2.358267784E0
2.611254442E0,-9.974479675E-2,-2.818469048E0,2.329289436E0
2.616076473E0,-8.239537477E-2,-2.713800192E0,2.330410004E0
2.620898505E0,-8.832752705E-2,-2.616659403E0,2.377024651E0
2.625720536E0,-8.786669374E-2,-2.511806488E0,2.454646111E0
2.630542619E0,-7.878720760E-2,-2.408905268E0,2.552345276E0
2.635364650E0,-7.915526628E-2,-2.312964916E0,2.680706024E0
2.640186682E0,-6.293343008E-2,-2.220524311E0,2.813239098E0
2.645008713E0,-6.140503287E-2,-2.123347282E0,2.956930161E0
2.649830744E0,-5.809424818E-2,-2.012032747E0,3.099635124E0
2.654652775E0,-4.738213867E-2,-1.912862778E0,3.249516487E0
2.659474859E0,-4.168134183E-2,-1.804443359E0,3.364588737E0
2.664296890E0,-3.809489310E-2,-1.701074958E0,3.453096390E0
2.669118921E0,-3.023402393E-2,-1.594293356E0,3.516124725E0
2.673940952E0,-3.217466176E-2,-1.484037995E0,3.561947823E0
2.678762984E0,-2.231327072E-2,-1.373655081E0,3.582126617E0
2.683585015E0,-1.952186227E-3,-1.246355295E0,3.576634407E0
2.688407046E0,-6.109789014E-3,-1.117433667E0,3.544273376E0
2.693229130E0,5.407787859E-3,-9.914641380E-1,3.497008324E0
2.698051161E0,-8.663207293E-3,-8.609535694E-1,3.416941643E0
2.702873192E0,-2.877061069E-2,-7.458577752E-1,3.345930099E0
2.707695223E0,-3.075423837E-2,-6.160391569E-1,3.270828247E0
2.712517255E0,-4.785141349E-2,-4.866041541E-1,3.201194763E0
2.717339338E0,-5.842331052E-2,-3.584740162E-1,3.142985344E0
2.722161369E0,-7.317590714E-2,-2.264939398E-1,3.081820488E0
2.726983400E0,-8.134350181E-2,-8.068516850E-2,3.041543961E0
2.731805432E0,-1.008418202E-1,5.543662235E-2,3.030410767E0
2.736627463E0,-1.113094091E-1,1.726696342E-1,3.006480217E0
2.741449494E0,-1.353998780E-1,3.049825728E-1,2.994750023E0
2.746271525E0,-1.634803414E-1,4.349003434E-1,2.981938362E0
2.751093609E0,-1.797742844E-1,5.722610950E-1,2.959561348E0
2.755915640E0,-2.019744515E-1,7.211790085E-1,2.926319122E0
2.760737671E0,-2.176353335E-1,8.510254025E-1,2.878540993E0
2.765559702E0,-2.274114490E-1,9.932326078E-1,2.801829338E0
2.770381734E0,-2.437129617E-1,1.130358934E0,2.718862534E0
2.775203765E0,-2.392523885E-1,1.255617380E0,2.589030266E0
2.780025848E0,-2.177409530E-1,1.365876198E0,2.430347443E0
2.784847880E0,-2.148652077E-1,1.491272688E0,2.276366234E0
2.789669911E0,-1.969219446E-1,1.607072592E0,2.104482651E0
2.794491942E0,-1.836416721E-1,1.700392723E0,1.904128075E0
2.799313973E0,-1.612976789E-1,1.819331527E0,1.692238808E0
2.804136005E0,-1.374735832E-1,1.916306734E0,1.479782104E0
2.808958088E0,-1.232062578E-1,2.002255917E0,1.281303406E0
2.813780119E0,-9.361588955E-2,2.100041866E0,1.093409538E0
2.818602150E0,-5.371540785E-2,2.189529419E0,9.378042221E-1
2.823424182E0,-2.030384541E-2,2.270757198E0,8.086729050E-1
2.828246213E0,2.968966961E-3,2.334254265E0,6.822881699E-1
2.833068244E0,4.103490710E-2,2.425525427E0,6.006383896E-1
2.837890327E0,6.636661291E-2,2.505104780E0,5.483007431E-1
2.842712359E0,7.165589929E-2,2.573009014E0,5.170278549E-1
2.847534390E0,9.493163228E-2,2.649521589E0,5.117101669E-1
2.852356421E0,1.299501061E-1,2.724936962E0,5.169076920E-1
2.857178452E0,1.440548450E-1,2.777788162E0,5.196170807E-1
2.862000484E0,1.570490450E-1,2.812644720E0,5.486125946E-1
2.866822567E0,1.575467288E-1,2.868696213E0,5.705175400E-1
2.871644598E0,1.638922989E-1,2.923073292E0,6.021976471E-1
2.876466630E0,1.798492819E-1,2.961154938E0,6.186647415E-1
2.881288661E0,1.827541888E-1,2.995785475E0,6.534957886E-1
2.886110692E0,1.843961328E-1,3.030187607E0,6.828756332E-1
2.890932723E0,1.702601612E-1,3.041298389E0,7.140789032E-1
2.895754755E0,1.840736419E-1,3.061024189E0,7.579450607E-1
2.900576838E0,1.679218709E-1,3.118813038E0,7.942237854E-1
2.905398869E0,1.437869668E-1,3.150873899E0,8.564176559E-1
2.910220900E0,1.420928240E-1,3.166368961E0,9.373407364E-1
2.915042932E0,1.260230839E-1,3.204313755E0,1.046502113E0
2.919864963E0,1.032722294E-1,3.243883610E0,1.153943062E0
2.924686994E0,1.026570499E-1,3.289514780E0,1.302596092E0
2.929509077E0,7.549667358E-2,3.334685087E0,1.462364197E0
2.934331109E0,6.860047579E-2,3.380239487E0,1.641431808E0
2.939153140E0,4.288637638E-2,3.428174496E0,1.827612877E0
2.943975171E0,1.904952526E-2,3.470840454E0,2.033739090E0
2.948797202E0,3.442466259E-3,3.517402172E0,2.228414536E0
2.953619234E0,1.072311401E-2,3.567477226E0,2.423253059E0
2.958441317E0,-9.758114815E-3,3.634947777E0,2.599946022E0
2.963263348E0,-1.216447353E-2,3.686089993E0,2.759358406E0
2.968085380E0,-1.118975878E-2,3.742018700E0,2.871225357E0
2.972907411E0,-1.220226288E-3,3.812063932E0,2.967516899E0
2.977729442E0,-7.516503334E-3,3.862405777E0,3.040663719E0
2.982551473E0,4.451990128E-3,3.946609735E0,3.078395844E0
2.987373505E0,1.080155373E-2,4.014308929E0,3.091215134E0
2.992195588E0,3.437674046E-2,4.079637527E0,3.065670967E0
2.997017619E0,4.549425840E-2,4.158018589E0,3.025449753E0
3.001839650E0,5.518990755E-2,4.231380463E0,2.973883629E0
3.006661682E0,6.755006313E-2,4.306797028E0,2.927488327E0
3.011483713E0,8.890348673E-2,4.377043724E0,2.878888130E0
3.016305796E0,1.136603951E-1,4.455204964E0,2.811166763E0
3.021127827E0,1.232244968E-1,4.507778168E0,2.786295891E0
3.025949859E0,1.420446038E-1,4.570588112E0,2.769399643E0
3.030771890E0,1.479226947E-1,4.636398792E0,2.773433208E0
3.035593921E0,1.580907106E-1,4.704062939E0,2.780360222E0
3.040415952E0,1.671164036E-1,4.741284847E0,2.784049988E0
3.045237984E0,1.755419374E-1,4.792247772E0,2.804651260E0
3.050060067E0,1.874836385E-1,4.840255737E0,2.842057228E0
3.054882098E0,1.998724937E-1,4.855412483E0,2.885350227E0
3.059704130E0,1.893498898E-1,4.881978035E0,2.921283245E0
3.064526161E0,1.922010779E-1,4.916339874E0,2.954529762E0
3.069348192E0,2.089632750E-1,4.944146156E0,2.975444317E0
3.074170223E0,2.232217789E-1,4.967818737E0,2.957689762E0
3.078992307E0,2.354844958E-1,5.002940178E0,2.932358742E0
3.083814338E0,2.437171936E-1,5.014916897E0,2.883919716E0
3.088636369E0,2.624994218E-1,5.043249130E0,2.807615280E0
3.093458400E0,2.813559175E-1,5.056912422E0,2.713064194E0
3.098280432E0,2.969182730E-1,5.058459759E0,2.605172634E0
3.103102463E0,2.914391756E-1,5.093365192E0,2.482819080E0
3.107924546E0,3.031516373E-1,5.121057510E0,2.352089882E0
3.112746577E0,3.214513659E-1,5.136893272E0,2.231061459E0
3.117568609E0,3.282756805E-1,5.131407261E0,2.111458302E0
3.122390640E0,3.523259759E-1,5.135797501E0,1.997018337E0
3.127212671E0,3.516654372E-1,5.121479034E0,1.890285015E0
3.132034702E0,3.703587055E-1,5.125624657E0,1.783066273E0
3.136856734E0,3.651885390E-1,5.126797676E0,1.687485218E0
3.141678817E0,3.658604026E-1,5.101204872E0,1.635957241E0
3.146500848E0,3.828918934E-1,5.069264889E0,1.583191395E0
3.151322880E0,3.776735961E-1,5.053772926E0,1.569984913E0
3.156144911E0,3.846164048E-1,5.034461021E0,1.568971634E0
3.160966942E0,4.021154046E-1,5.010274410E0,1.569594860E0
3.165789025E0,3.806957603E-1,4.964600086E0,1.600697517E0
3.170611057E0,3.833190799E-1,4.930935383E0,1.633673668E0
3.175433088E0,3.867547512E-1,4.881958485E0,1.659176826E0
3.180255119E0,3.904907107E-1,4.850019455E0,1.677344322E0
3.185077150E0,3.736782670E-1,4.825749397E0,1.690786362E0
3.189899182E0,3.704137206E-1,4.788927555E0,1.657811165E0
3.194721265E0,3.669382930E-1,4.755296230E0,1.641956329E0
3.199543296E0,3.663520217E-1,4.717851162E0,1.589574814E0
3.204365327E0,3.452957273E-1,4.687582493E0,1.514002800E0
3.209187359E0,3.296924829E-1,4.659915924E0,1.403474808E0
3.214009390E0,3.262758851E-1,4.609926224E0,1.285609245E0
3.218831421E0,3.273876905E-1,4.570142269E0,1.143818855E0
3.223653452E0,3.302557468E-1,4.556352615E0,9.890317917E-1
3.228475536E0,3.131480217E-1,4.523352146E0,8.225831985E-1
3.233297567E0,3.105294704E-1,4.459471226E0,6.768703461E-1
3.238119598E0,3.281483650E-1,4.423556805E0,5.304880142E-1
3.242941630E0,3.240596652E-1,4.382243156E0,4.062004089E-1
3.247763661E0,3.222014904E-1,4.351370335E0,2.957735062E-1
3.252585692E0,2.975028157E-1,4.312050343E0,2.052917480E-1
3.257407775E0,2.859693766E-1,4.270483017E0,1.444063187E-1
3.262229807E0,2.781403661E-1,4.228124142E0,8.812427521E-2
3.267051838E0,2.671324611E-1,4.177999020E0,5.806350708E-2
3.271873869E0,2.532299757E-1,4.138290882E0,4.476451874E-2
3.276695900E0,2.464043498E-1,4.108010292E0,5.430793762E-2
3.281517932E0,2.315841913E-1,4.073046207E0,8.081626892E-2
3.286340015E0,2.320316434E-1,4.034770012E0,1.052474976E-1
3.291162046E0,2.159786224E-1,3.999455452E0,1.110095978E-1
3.295984077E0,2.188318968E-1,3.963634491E0,1.340341568E-1
3.300806109E0,2.185000777E-1,3.943103313E0,1.528844833E-1
3.305628140E0,2.312819958E-1,3.904414177E0,1.651735306E-1
3.310450171E0,2.328221202E-1,3.864583015E0,1.554489136E-1
3.315272255E0,2.524880767E-1,3.821297646E0,1.464185715E-1
3.320094286E0,2.587448061E-1,3.763945341E0,1.356840134E-1
3.324916317E0,2.641460598E-1,3.737979174E0,1.064615250E-1
3.329738348E0,2.670894265E-1,3.680076122E0,8.381366730E-2
3.334560380E0,2.810809314E-1,3.607070923E0,7.004737854E-2
3.339382411E0,3.102652133E-1,3.558398247E0,7.462692261E-2
3.344204494E0,3.143986464E-1,3.511325121E0,6.399631500E-2
3.349026525E0,3.165184259E-1,3.443096638E0,7.272815704E-2
3.353848557E0,3.120144606E-1,3.377594471E0,9.234333038E-2
3.358670588E0,3.165313303E-1,3.296806812E0,1.478328705E-1
3.363492619E0,3.289062083E-1,3.248426437E0,2.187519073E-1
3.368314650E0,3.262647688E-1,3.166622400E0,3.133754730E-1
3.373136734E0,3.157107532E-1,3.077538013E0,4.363670349E-1
3.377958765E0,3.183732033E-1,3.008620977E0,5.888414383E-1
3.382780796E0,3.075798750E-1,2.936894894E0,7.658939362E-1
3.387602827E0,2.960198820E-1,2.869367123E0,9.698219299E-1
3.392424859E0,2.831201255E-1,2.775939703E0,1.179009438E0
3.397246890E0,2.610148787E-1,2.686363459E0,1.420862198E0
3.402068921E0,2.301302850E-1,2.596741199E0,1.651027679E0
3.406891005E0,2.136703134E-1,2.500897169E0,1.893336296E0
3.411713036E0,1.760861278E-1,2.414027929E0,2.138082504E0
3.416535067E0,1.403784156E-1,2.297634840E0,2.382755280E0
3.421357098E0,9.971064329E-2,2.177711964E0,2.594956398E0
3.426179130E0,8.069056273E-2,2.075521946E0,2.794913292E0
3.431001161E0,4.058003426E-2,1.945228338E0,2.970522881E0
3.435823244E0,1.449644566E-2,1.836826801E0,3.137228012E0
3.440645275E0,-1.141685247E-2,1.722328305E0,3.273369789E0
3.445467307E0,-4.853314161E-2,1.585967779E0,3.384859085E0
3.450289338E0,-6.977903843E-2,1.466848373E0,3.454903603E0
3.455111369E0,-8.988732100E-2,1.347984791E0,3.527708054E0
3.459933400E0,-1.126890779E-1,1.209894657E0,3.553034782E0
3.464755484E0,-1.383308172E-1,1.081011176E0,3.588290215E0
3.469577515E0,-1.547741294E-1,9.515142441E-1,3.615575790E0
3.474399546E0,-1.833717823E-1,8.199248314E-1,3.630182266E0
3.479221577E0,-1.880127192E-1,6.788284779E-1,3.650135994E0
3.484043609E0,-1.957593560E-1,5.447084904E-1,3.667189598E0
3.488865640E0,-1.941812634E-1,4.233016968E-1,3.708970070E0
3.493687723E0,-2.137226462E-1,2.726299763E-1,3.760084152E0
3.498509755E0,-2.130941153E-1,1.403007507E-1,3.813519478E0
3.503331786E0,-2.356767058E-1,-1.696610451E-2,3.867070198E0
3.508153817E0,-2.532207966E-1,-1.562210917E-1,3.941237450E0
3.512975848E0,-2.384134531E-1,-2.943205833E-1,4.012303352E0
3.517797880E0,-2.429741323E-1,-4.445297122E-1,4.066114426E0
3.522619911E0,-2.348435223E-1,-5.925778151E-1,4.093323708E0
3.527441994E0,-2.405866385E-1,-7.385499477E-1,4.116835594E0
3.532264025E0,-2.222564816E-1,-8.775976896E-1,4.122489929E0
3.537086057E0,-2.124859989E-1,-1.015766382E0,4.100904465E0
3.541908088E0,-1.973102242E-1,-1.165975571E0,4.036741257E0
3.546730119E0,-1.831800342E-1,-1.300766587E0,3.972018242E0
3.551552202E0,-1.708153635E-1,-1.409204960E0,3.874616623E0
3.556374234E0,-1.608927250E-1,-1.549600244E0,3.755475998E0
3.561196265E0,-1.400033534E-1,-1.673976302E0,3.626717567E0
3.566018296E0,-1.414487511E-1,-1.801089644E0,3.483707428E0
3.570840327E0,-1.222043186E-1,-1.924780130E0,3.333779335E0
3.575662359E0,-1.087672338E-1,-2.033905983E0,3.210527420E0
3.580484442E0,-9.780341387E-2,-2.133002281E0,3.078210831E0
3.585306473E0,-9.689415991E-2,-2.244421721E0,2.959670067E0
3.590128505E0,-1.005861461E-1,-2.350943089E0,2.849007607E0
3.594950536E0,-1.154451668E-1,-2.452283859E0,2.789329529E0
3.599772567E0,-1.111044139E-1,-2.550431728E0,2.718511581E0
3.604594598E0,-1.098658442E-1,-2.641397476E0,2.695151329E0
3.609416682E0,-1.172811687E-1,-2.735524178E0,2.676186562E0
3.614238713E0,-1.295683384E-1,-2.825185299E0,2.656799316E0
3.619060744E0,-1.654287279E-1,-2.895691633E0,2.635749817E0
3.623882775E0,-1.946828961E-1,-2.960890770E0,2.618891716E0
3.628704807E0,-2.062692642E-1,-3.033540010E0,2.601309776E0
3.633526838E0,-2.524365485E-1,-3.097592831E0,2.548157692E0
3.638348869E0,-2.718749344E-1,-3.162226677E0,2.490335464E0
3.643170952E0,-2.843084633E-1,-3.218704700E0,2.388199806E0
3.647992984E0,-2.975195646E-1,-3.260694742E0,2.276207924E0
3.652815015E0,-3.226745725E-1,-3.306852102E0,2.133753777E0
3.657637046E0,-3.494091332E-1,-3.379581690E0,1.977340698E0
3.662459077E0,-3.647198081E-1,-3.412838936E0,1.811502457E0
3.667281109E0,-3.902022541E-1,-3.451727152E0,1.619223595E0
3.672103192E0,-4.007622004E-1,-3.502024174E0,1.421808243E0
3.676925223E0,-4.021682143E-1,-3.570654392E0,1.242909431E0
3.681747255E0,-4.216755033E-1,-3.601223946E0,1.060749054E0
3.686569286E0,-4.195050001E-1,-3.640231609E0,9.121513367E-1
3.691391317E0,-4.143672884E-1,-3.672030926E0,7.502841949E-1
3.696213348E0,-4.177574515E-1,-3.715505362E0,6.370258331E-1
3.701035432E0,-4.195638597E-1,-3.753920555E0,5.267686844E-1
3.705857463E0,-4.301142693E-1,-3.784718037E0,4.610795975E-1
3.710679494E0,-4.283011258E-1,-3.806626081E0,3.859338760E-1
3.715501525E0,-4.327759445E-1,-3.823184252E0,3.357982635E-1
3.720323557E0,-4.201466143E-1,-3.842697859E0,3.068485260E-1
3.725145588E0,-4.220581353E-1,-3.856801510E0,2.594547272E-1
3.729967619E0,-4.032423496E-1,-3.884608746E0,2.280988693E-1
3.734789702E0,-4.180710912E-1,-3.914131165E0,2.221193314E-1
3.739611734E0,-3.798706234E-1,-3.932225466E0,1.899175644E-1
3.744433765E0,-3.694023192E-1,-3.949712753E0,1.564559937E-1
3.749255796E0,-3.658235371E-1,-3.984575987E0,1.036634445E-1
3.754077827E0,-3.508107662E-1,-3.995081902E0,3.862094879E-2
3.758899859E0,-3.287253082E-1,-4.047101974E0,-5.291938782E-3
3.763721942E0,-3.279672265E-1,-4.082108021E0,-6.764602661E-2
3.768543973E0,-3.184017837E-1,-4.133715630E0,-1.616125107E-1
3.773366005E0,-3.106276393E-1,-4.168631554E0,-2.345800400E-1
3.778188036E0,-3.081083298E-1,-4.231199265E0,-3.117008209E-1
3.783010067E0,-2.822014689E-1,-4.272588730E0,-3.857517242E-1
3.787832098E0,-2.735618055E-1,-4.310888290E0,-4.447612762E-1
3.792654182E0,-2.823052406E-1,-4.363012314E0,-5.006179810E-1
3.797476213E0,-2.809965909E-1,-4.399210453E0,-5.293636322E-1
3.802298244E0,-2.806125879E-1,-4.442376137E0,-5.500450134E-1
3.807120275E0,-2.861459851E-1,-4.485497475E0,-5.518002510E-1
3.811942307E0,-2.775137126E-1,-4.527446747E0,-5.405669212E-1
3.816764338E0,-2.896859050E-1,-4.554127693E0,-5.125837326E-1
3.821586421E0,-2.954902351E-1,-4.597882271E0,-4.761619568E-1
3.826408452E0,-2.905418873E-1,-4.619421959E0,-4.168219566E-1
3.831230484E0,-2.870911360E-1,-4.644018650E0,-3.463964462E-1
3.836052515E0,-3.156017065E-1,-4.677693367E0,-2.564544678E-1
3.840874546E0,-3.249572515E-1,-4.683602333E0,-1.611776352E-1
3.845696577E0,-3.442849517E-1,-4.714465618E0,-7.837963104E-2
3.850518661E0,-3.477908373E-1,-4.741683483E0,4.262924194E-4
3.855340692E0,-3.538727760E-1,-4.739167213E0,6.943321228E-2
3.860162723E0,-3.713668287E-1,-4.783620834E0,1.300020218E-1
3.864984755E0,-3.696348071E-1,-4.810571194E0,1.810388565E-1
3.869806786E0,-3.838397861E-1,-4.803461075E0,2.059364319E-1
3.874628817E0,-3.724477291E-1,-4.834236622E0,2.311563492E-1
3.879450900E0,-3.824709654E-1,-4.858813286E0,2.281389236E-1
3.884272932E0,-3.759849370E-1,-4.867717743E0,2.160835266E-1
3.889094963E0,-4.022953510E-1,-4.891082287E0,1.724491119E-1
3.893916994E0,-3.803437948E-1,-4.890832901E0,1.499605179E-1
3.898739025E0,-3.844308257E-1,-4.906587124E0,1.092548370E-1
3.903561057E0,-3.847128153E-1,-4.919278145E0,6.832027435E-2
3.908383088E0,-3.825062513E-1,-4.900429726E0,3.086566925E-2
3.913205171E0,-3.730703592E-1,-4.915950775E0,5.617141724E-4
3.918027202E0,-3.694974780E-1,-4.913310051E0,-2.225875854E-3
3.922849234E0,-3.705472648E-1,-4.913034439E0,-2.501487732E-3
3.927671265E0,-3.724689484E-1,-4.891285419E0,-1.694774628E-2
3.932493296E0,-3.667126000E-1,-4.878129959E0,-2.417564392E-3
3.937315380E0,-3.770772219E-1,-4.864051819E0,1.122283936E-2
3.942137411E0,-3.804903030E-1,-4.840804100E0,6.110286713E-2
3.946959442E0,-3.850852251E-1,-4.832390308E0,1.102027893E-1
3.951781473E0,-3.845121861E-1,-4.806610107E0,1.502161026E-1
3.956603505E0,-3.772768974E-1,-4.791112900E0,2.278470993E-1
3.961425536E0,-3.713513017E-1,-4.760848045E0,2.952880859E-1
3.966247619E0,-3.829405308E-1,-4.749328613E0,3.693056107E-1
3.971069650E0,-3.948799670E-1,-4.745844841E0,4.200506210E-1
3.975891682E0,-3.923528492E-1,-4.708610058E0,4.714641571E-1
3.980713713E0,-3.701049685E-1,-4.678323746E0,5.187616348E-1
3.985535744E0,-3.660042286E-1,-4.632293701E0,5.547685623E-1
3.990357775E0,-3.638928533E-1,-4.620806217E0,5.771265030E-1
3.995179807E0,-3.395057619E-1,-4.573259830E0,5.762252808E-1
4.000001890E0,-3.461923003E-1,-4.537487984E0,5.663957596E-1
4.004823921E0,-3.309574723E-1,-4.502662182E0,5.404167175E-1
4.009645952E0,-3.329197764E-1,-4.461640358E0,5.233812332E-1
4.014467984E0,-3.266293705E-1,-4.416733742E0,4.984750748E-1
4.019290015E0,-3.250222206E-1,-4.382250786E0,4.668569565E-1
4.024112046E0,-3.111450970E-1,-4.343814850E0,4.547920227E-1
4.028934130E0,-3.016150594E-1,-4.265390396E0,4.466123581E-1
4.033756161E0,-2.951312661E-1,-4.224737167E0,4.506931305E-1
4.038578192E0,-2.856928110E-1,-4.190584660E0,4.645500183E-1
4.043400223E0,-2.769721746E-1,-4.130557060E0,4.845495224E-1
4.048222255E0,-2.929366827E-1,-4.064896584E0,5.464982986E-1
4.053044286E0,-2.739676833E-1,-3.998217583E0,5.905389786E-1
4.057866369E0,-2.621646821E-1,-3.943585634E0,6.513357162E-1
4.062688400E0,-2.566218078E-1,-3.864952087E0,7.144756317E-1
4.067510432E0,-2.540157139E-1,-3.810049295E0,7.835273743E-1
4.072332463E0,-2.560656965E-1,-3.731979370E0,8.631753922E-1
4.077154494E0,-2.667681575E-1,-3.670054436E0,9.390296936E-1
4.081976525E0,-2.710585594E-1,-3.592998028E0,9.955024719E-1
4.086798609E0,-2.491547763E-1,-3.495939016E0,1.057679176E0
4.091620640E0,-2.650250793E-1,-3.408466339E0,1.114674568E0
4.096442671E0,-2.928797007E-1,-3.335222721E0,1.150912285E0
4.101264702E0,-3.034836650E-1,-3.246085644E0,1.192600250E0
4.106086734E0,-2.949760854E-1,-3.176743269E0,1.193044662E0
4.110908765E0,-2.942583859E-1,-3.080334663E0,1.204760551E0
4.115730796E0,-3.043069541E-1,-2.991378784E0,1.179844856E0
4.120552880E0,-2.957330346E-1,-2.911978245E0,1.182733536E0
4.125374911E0,-2.975882590E-1,-2.830014229E0,1.160744667E0
4.130196942E0,-2.983696759E-1,-2.741744995E0,1.137729645E0
4.135018973E0,-3.067475855E-1,-2.650547743E0,1.100460052E0
4.139841005E0,-3.074052632E-1,-2.562239885E0,1.079973221E0
4.144663088E0,-3.064861298E-1,-2.470619440E0,1.059462547E0
4.149485119E0,-3.124475181E-1,-2.381517410E0,1.042502403E0
4.154307150E0,-2.846823037E-1,-2.294715643E0,1.020706177E0
4.159129182E0,-2.911776900E-1,-2.204144716E0,1.020422935E0
4.163951213E0,-2.959603965E-1,-2.119139671E0,1.017740250E0
4.168773244E0,-2.676818967E-1,-2.030037880E0,1.030674934E0
4.173595275E0,-2.657670081E-1,-1.941455841E0,1.035387993E0
4.178417307E0,-2.539538741E-1,-1.840155840E0,1.043957710E0
4.183239390E0,-2.436654568E-1,-1.739140153E0,1.083973885E0
4.188061421E0,-2.248672545E-1,-1.655049086E0,1.106551170E0
4.192883452E0,-2.123712599E-1,-1.579476833E0,1.131003380E0
4.197705484E0,-2.020582557E-1,-1.484814405E0,1.157469749E0
4.202527515E0,-1.764784157E-1,-1.410415173E0,1.184911728E0
4.207349598E0,-1.707407534E-1,-1.328877926E0,1.225488663E0
4.212171630E0,-1.482457817E-1,-1.259302378E0,1.254264832E0
4.216993661E0,-1.239388287E-1,-1.181417346E0,1.272635460E0
4.221815692E0,-1.030321270E-1,-1.119177938E0,1.305898666E0
4.226637723E0,-8.732692897E-2,-1.046410441E0,1.333917618E0
4.231459755E0,-9.064079821E-2,-9.871805906E-1,1.361679077E0
4.236281838E0,-6.944935024E-2,-9.259662032E-1,1.386964798E0
4.241103869E0,-5.686400831E-2,-8.666648865E-1,1.420754433E0
4.245925900E0,-4.780593514E-2,-7.974777222E-1,1.458447456E0
4.250747932E0,-3.011457622E-2,-7.378113866E-1,1.514584541E0
4.255569963E0,-1.808904111E-2,-6.758844256E-1,1.572595596E0
4.260392046E0,-3.568513691E-2,-6.239923239E-1,1.652996063E0
4.265214077E0,-3.764282167E-2,-5.346655846E-1,1.745190620E0
4.270036109E0,-4.695960879E-2,-4.774947166E-1,1.842157364E0
4.274858140E0,-4.602554440E-2,-4.025986195E-1,1.966753960E0
4.279680171E0,-5.211594701E-2,-3.306185603E-1,2.099962234E0
4.284502202E0,-5.507084727E-2,-2.583945394E-1,2.247859001E0
4.289324234E0,-7.577040792E-2,-1.814911515E-1,2.405733109E0
4.294146317E0,-9.464755654E-2,-1.134807169E-1,2.552106857E0
4.298968348E0,-1.111938059E-1,-3.918048739E-2,2.721665382E0
4.303790380E0,-1.142916679E-1,5.418282747E-2,2.880900383E0
4.308612411E0,-1.358493567E-1,1.351053119E-1,3.045289040E0
4.313434442E0,-1.455209255E-1,2.378443480E-1,3.201586723E0
4.318256473E0,-1.537472606E-1,3.129663467E-1,3.342490196E0
4.323078557E0,-1.779128909E-1,4.007540941E-1,3.460685730E0
4.327900588E0,-1.767877936E-1,4.960519671E-1,3.572738647E0
4.332722619E0,-1.713865995E-1,5.925948620E-1,3.655748367E0
4.337544650E0,-1.692231297E-1,6.947077513E-1,3.711907387E0
4.342366682E0,-1.623708606E-1,8.080828190E-1,3.756546974E0
4.347188713E0,-1.570278406E-1,9.193129539E-1,3.770344734E0
4.352010796E0,-1.556477547E-1,1.018598557E0,3.775822639E0
4.356832827E0,-1.368061304E-1,1.139107704E0,3.778730392E0
4.361654859E0,-1.265943646E-1,1.254408360E0,3.757386208E0
4.366476890E0,-1.152964234E-1,1.372625232E0,3.758213997E0
4.371298921E0,-9.546917677E-2,1.481661320E0,3.726046562E0
4.376120952E0,-7.747274637E-2,1.586175323E0,3.721705437E0
4.380943036E0,-6.684416533E-2,1.705165625E0,3.723491669E0
4.385765067E0,-6.424427032E-2,1.827725887E0,3.724078178E0
4.390587098E0,-4.633498192E-2,1.939465046E0,3.736490250E0
4.395409130E0,-2.577918768E-2,2.042738438E0,3.737882614E0
4.400231161E0,-1.621747017E-2,2.155460835E0,3.752062798E0
4.405053192E0,5.679070950E-3,2.264443874E0,3.762166977E0
4.409875223E0,1.551234722E-2,2.368421555E0,3.784798622E0
4.414697307E0,3.301995993E-2,2.479459524E0,3.766098976E0
4.419519338E0,3.379666805E-2,2.571237326E0,3.738266945E0
4.424341369E0,5.538314581E-2,2.667798519E0,3.702438354E0
4.429163400E0,6.025078893E-2,2.764377594E0,3.627460480E0
4.433985432E0,8.703735471E-2,2.876734495E0,3.548011780E0
4.438807463E0,9.791371226E-2,2.989336014E0,3.444882393E0
4.443629546E0,1.326223910E-1,3.088051558E0,3.304943085E0
4.448451577E0,1.424537897E-1,3.187359333E0,3.147319794E0
4.453273609E0,1.479021013E-1,3.277835846E0,3.003071785E0
4.458095640E0,1.657462269E-1,3.356198788E0,2.849532127E0
4.462917671E0,1.697715074E-1,3.460769892E0,2.714162827E0
4.467739702E0,1.729818732E-1,3.554748535E0,2.577885628E0
4.472561786E0,1.849117577E-1,3.639439821E0,2.434727669E0
4.477383817E0,1.920988858E-1,3.716313601E0,2.311060905E0
4.482205848E0,1.907006800E-1,3.811829090E0,2.198537827E0
4.487027880E0,1.983759999E-1,3.884351730E0,2.109164238E0
4.491849911E0,1.992543936E-1,3.949615955E0,2.035798073E0
4.496671942E0,1.976222992E-1,4.007858276E0,1.962964058E0
4.501494025E0,1.883214116E-1,4.090281963E0,1.900254250E0
4.506316057E0,1.780776381E-1,4.163606644E0,1.870431900E0
4.511138088E0,1.842396557E-1,4.225685596E0,1.824539185E0
4.515960119E0,1.812506616E-1,4.294577122E0,1.775765419E0
4.520782150E0,1.757452786E-1,4.362089157E0,1.713399887E0
4.525604182E0,1.673128605E-1,4.412859440E0,1.626750946E0
4.530426265E0,1.684780121E-1,4.469866753E0,1.548175812E0
4.535248296E0,1.632960439E-1,4.534389973E0,1.447789192E0
4.540070327E0,1.704441905E-1,4.589885712E0,1.345973969E0
4.544892359E0,1.703851819E-1,4.635332584E0,1.227221489E0
4.549714390E0,1.640523076E-1,4.685223103E0,1.107116699E0
4.554536421E0,1.714176536E-1,4.720603466E0,9.856920242E-1
4.559358505E0,1.635756493E-1,4.765463829E0,8.545913696E-1
4.564180536E0,1.881374121E-1,4.810418606E0,7.102985382E-1
4.569002567E0,1.828809977E-1,4.841198444E0,5.743608475E-1
4.573824598E0,1.955738068E-1,4.874695301E0,4.253206253E-1
4.578646630E0,2.035089731E-1,4.909721375E0,2.859029770E-1
4.583468661E0,1.923734546E-1,4.949981689E0,1.489963531E-1
4.588290744E0,2.006358504E-1,4.965649128E0,3.854942322E-2
4.593112775E0,1.948147416E-1,4.975983620E0,-7.766342163E-2
4.597934807E0,2.050586939E-1,5.015635490E0,-1.673383713E-1
4.602756838E0,2.231788039E-1,5.044039249E0,-2.423696518E-1
4.607578869E0,2.004592419E-1,5.077880383E0,-2.943935394E-1
4.612400900E0,2.065087557E-1,5.077820301E0,-3.185625076E-1
4.617222932E0,2.165338993E-1,5.090500832E0,-3.244228363E-1
4.622045015E0,2.069481611E-1,5.111107826E0,-3.012037277E-1
4.626867046E0,1.997152865E-1,5.118096828E0,-2.632427216E-1
4.631689077E0,1.880025268E-1,5.140224934E0,-2.224283218E-1
4.636511109E0,1.937403679E-1,5.165468216E0,-1.620225906E-1
4.641333140E0,2.005675435E-1,5.165141106E0,-1.166677475E-1
4.646155171E0,1.969130635E-1,5.181006432E0,-6.724166870E-2
4.650977255E0,1.916467547E-1,5.173617840E0,-1.849174500E-2
4.655799286E0,1.814910769E-1,5.171578884E0,9.230613708E-3
4.660621317E0,1.954853535E-1,5.182064056E0,9.996414185E-3
4.665443348E0,1.838060617E-1,5.196497917E0,-3.107070923E-3
4.670265380E0,1.873244643E-1,5.194484711E0,-3.130340576E-2
4.675087411E0,1.812719703E-1,5.167601585E0,-6.863498688E-2
4.679909494E0,1.980606914E-1,5.152782440E0,-8.052349091E-2
4.684731525E0,1.912260354E-1,5.149947643E0,-1.196193695E-1
4.689553557E0,1.883993447E-1,5.135071278E0,-1.525020599E-1
4.694375588E0,1.980052143E-1,5.130823135E0,-1.577072144E-1
4.699197619E0,1.901607513E-1,5.112987518E0,-1.462078094E-1
4.704019650E0,1.888162345E-1,5.100667000E0,-1.264190674E-1
4.708841734E0,1.784006953E-1,5.090174675E0,-1.008043289E-1
4.713663765E0,1.934342682E-1,5.066995621E0,-4.439353943E-2
4.718485796E0,1.908133030E-1,5.053692341E0,1.758575439E-2
4.723307827E0,1.680456996E-1,5.020272732E0,1.173124313E-1
4.728129859E0,1.715656817E-1,5.008451462E0,2.415065765E-1
4.732951890E0,1.665343046E-1,4.970189095E0,3.971672058E-1
4.737773973E0,1.622255147E-1,4.942469120E0,5.877685547E-1
4.742596005E0,1.512800455E-1,4.914254665E0,7.593183517E-1
4.747418036E0,1.333644688E-1,4.885483265E0,9.691371918E-1
4.752240067E0,1.380567551E-1,4.853509903E0,1.165618896E0
4.757062098E0,1.064136326E-1,4.808600426E0,1.384491920E0
4.761884130E0,8.957016468E-2,4.758977890E0,1.590956688E0
4.766706213E0,7.999292016E-2,4.711610317E0,1.772924423E0
4.771528244E0,4.856145382E-2,4.655568123E0,1.941040039E0
4.776350275E0,6.301417947E-2,4.610969543E0,2.083213806E0
4.781172307E0,4.289764166E-2,4.560969830E0,2.193410873E0
4.785994338E0,3.095465899E-2,4.507748127E0,2.270324707E0
4.790816369E0,2.683019638E-2,4.458425045E0,2.312742233E0
4.795638452E0,2.308106422E-2,4.400835037E0,2.332520485E0
4.800460484E0,-8.367300034E-4,4.343286991E0,2.323670387E0
4.805282515E0,2.157092094E-4,4.280852318E0,2.312426567E0
4.810104546E0,-1.331967115E-2,4.230206966E0,2.294003487E0
4.814926577E0,-1.530683041E-2,4.164950848E0,2.264797211E0
4.819748609E0,-1.891559362E-2,4.096911430E0,2.241519928E0
4.824570640E0,-2.787601948E-2,4.032027245E0,2.220613480E0
4.829392723E0,-3.499382734E-2,3.958263159E0,2.235560417E0
4.834214755E0,-5.930340290E-2,3.875412464E0,2.263584137E0
4.839036786E0,-5.894029140E-2,3.790660620E0,2.314334869E0
4.843858817E0,-6.969153881E-2,3.708641529E0,2.392601013E0
4.848680848E0,-8.655399084E-2,3.613682270E0,2.496026039E0
4.853502880E0,-1.201556921E-1,3.510518074E0,2.616321564E0
4.858324963E0,-1.139795184E-1,3.413337708E0,2.735634804E0
4.863146994E0,-1.264001727E-1,3.289742231E0,2.856456757E0
4.867969025E0,-1.283559203E-1,3.203097820E0,2.983753204E0
4.872791057E0,-1.337807477E-1,3.086304188E0,3.094944000E0
4.877613088E0,-1.446933150E-1,2.968003035E0,3.192598343E0
4.882435119E0,-1.581802666E-1,2.839844227E0,3.282920837E0
4.887257202E0,-1.642361879E-1,2.731689692E0,3.323100090E0
4.892079234E0,-1.336703897E-1,2.614882708E0,3.309838295E0
4.896901265E0,-1.365599930E-1,2.495417595E0,3.306738853E0
4.901723296E0,-1.233372092E-1,2.381834030E0,3.280605316E0
4.906545327E0,-1.210863888E-1,2.284909964E0,3.208966255E0
4.911367359E0,-1.090016365E-1,2.174936056E0,3.123208046E0
4.916189442E0,-9.276184440E-2,2.086732149E0,3.031948090E0
4.921011473E0,-7.916417718E-2,1.987042546E0,2.907969475E0
4.925833505E0,-5.964478850E-2,1.882008791E0,2.796935081E0
4.930655536E0,-5.428154767E-2,1.771964788E0,2.687150955E0
4.935477567E0,-3.420370817E-2,1.690615416E0,2.607516289E0
4.940299598E0,-2.449414134E-2,1.567616701E0,2.540273666E0
4.945121682E0,-1.791089773E-2,1.459559798E0,2.473699570E0
4.949943713E0,-2.677410841E-3,1.371476173E0,2.419932365E0
4.954765744E0,-7.633775473E-3,1.280963898E0,2.399463654E0
4.959587775E0,1.957553625E-2,1.197934866E0,2.392114639E0
4.964409807E0,3.201815486E-2,1.097627640E0,2.383684158E0
4.969231890E0,9.000390768E-3,1.009076238E0,2.392225266E0
4.974053921E0,-1.054874063E-2,9.398373365E-1,2.401099205E0
4.978875952E0,1.000225544E-2,8.580397964E-1,2.402030945E0
4.983697984E0,-5.766153336E-4,7.759941816E-1,2.397458076E0
4.988520015E0,-1.894882321E-2,7.001161575E-1,2.392191887E0
4.993342046E0,-3.372719884E-2,6.296445131E-1,2.364715576E0
4.998164077E0,-3.969371319E-2,5.672313571E-1,2.340089798E0
5.002986161E0,-4.696661234E-2,5.122016668E-1,2.319442749E0
5.007808192E0,-6.103098392E-2,4.422283769E-1,2.250079155E0
5.012630223E0,-6.321793795E-2,3.682592213E-1,2.195261955E0
5.017452255E0,-7.446050644E-2,2.979859710E-1,2.114195824E0
5.022274286E0,-9.385758638E-2,2.411722839E-1,1.999589920E0
5.027096317E0,-1.051629186E-1,1.718497872E-1,1.921803474E0
5.031918400E0,-1.133745313E-1,1.010691822E-1,1.814895630E0
5.036740432E0,-1.162238121E-1,4.579669237E-2,1.725329399E0
5.041562463E0,-1.245834827E-1,-4.038989544E-2,1.645739555E0
5.046384494E0,-1.443814039E-1,-1.082782745E-1,1.571167946E0
5.051206525E0,-1.515654325E-1,-1.660682559E-1,1.521763802E0
5.056028557E0,-1.400489211E-1,-2.303221226E-1,1.461486816E0
5.060850640E0,-1.357675791E-1,-2.974162698E-1,1.435635567E0
5.065672671E0,-1.432096362E-1,-3.827142119E-1,1.426096916E0
5.070494702E0,-1.403363943E-1,-4.478404522E-1,1.416001320E0
5.075316734E0,-1.231221557E-1,-5.119659901E-1,1.435116768E0
5.080138765E0,-1.197456717E-1,-5.786346197E-1,1.466566086E0
5.084960796E0,-1.187807322E-1,-6.502654552E-1,1.494716644E0
5.089782880E0,-1.171970665E-1,-7.232106924E-1,1.530219078E0
5.094604911E0,-1.000356078E-1,-7.904241085E-1,1.550289154E0
5.099426942E0,-7.742902637E-2,-8.758081198E-1,1.591892242E0
5.104248973E0,-6.912037730E-2,-9.531710148E-1,1.616690636E0
5.109071005E0,-5.530369282E-2,-1.043050766E0,1.648560524E0
5.113893036E0,-2.955561876E-2,-1.146655321E0,1.656335831E0
5.118715119E0,-1.764014363E-2,-1.225974321E0,1.663914680E0
5.123537150E0,1.177877188E-3,-1.326657891E0,1.670070648E0
5.128359182E0,1.289477944E-2,-1.413042784E0,1.679556847E0
5.133181213E0,2.855220437E-2,-1.510438085E0,1.683986664E0
5.138003244E0,5.065521598E-2,-1.614316463E0,1.695319176E0
5.142825275E0,6.139442325E-2,-1.723740697E0,1.695642471E0
5.147647307E0,6.907841563E-2,-1.816235423E0,1.714861870E0
5.152469390E0,7.005643845E-2,-1.926707864E0,1.739836693E0
5.157291421E0,8.333501220E-2,-2.035139561E0,1.763453484E0
5.162113452E0,8.469980955E-2,-2.128635406E0,1.825196266E0
5.166935484E0,1.001479924E-1,-2.232578278E0,1.890425682E0
5.171757515E0,8.628523350E-2,-2.326886177E0,1.950833321E0
5.176579546E0,9.525093436E-2,-2.432154179E0,2.014855385E0
5.181401630E0,8.352884650E-2,-2.533120155E0,2.081364632E0
5.186223661E0,7.336041331E-2,-2.628810167E0,2.161166191E0
5.191045692E0,8.083298802E-2,-2.730264425E0,2.206507683E0
5.195867723E0,6.606203318E-2,-2.850845337E0,2.260507584E0
5.200689755E0,5.831331015E-2,-2.935827732E0,2.304087639E0
5.205511786E0,6.066155434E-2,-3.006991386E0,2.331332207E0
5.210333869E0,6.541997194E-2,-3.117040157E0,2.336298943E0
5.215155900E0,6.241559982E-2,-3.213609457E0,2.326224327E0
5.219977932E0,6.445562840E-2,-3.298095942E0,2.285631180E0
5.224799963E0,5.081450939E-2,-3.383762836E0,2.244441032E0
5.229621994E0,5.703467131E-2,-3.479123592E0,2.189538956E0
5.234444025E0,6.251478195E-2,-3.579519272E0,2.116195679E0
5.239266109E0,6.230503321E-2,-3.652795553E0,2.041199684E0
5.244088140E0,6.218701601E-2,-3.744427681E0,1.981295586E0
5.248910171E0,6.455582380E-2,-3.822210073E0,1.897081375E0
5.253732202E0,7.539123297E-2,-3.876678944E0,1.823301315E0
5.258554234E0,8.522826433E-2,-3.949678183E0,1.769537926E0
5.263376265E0,8.222413063E-2,-4.032827377E0,1.716699600E0
5.268198348E0,7.969224453E-2,-4.116578579E0,1.658878326E0
5.273020380E0,8.862811327E-2,-4.182984352E0,1.630795479E0
5.277842411E0,8.302241564E-2,-4.249932289E0,1.593030930E0
5.282664442E0,9.900611639E-2,-4.323390007E0,1.568378448E0
5.287486473E0,1.047556996E-1,-4.361478806E0,1.531798363E0
5.292308557E0,1.017854214E-1,-4.432226658E0,1.495284081E0
5.297130588E0,1.299507618E-1,-4.499649525E0,1.444537163E0
5.301952619E0,1.190879345E-1,-4.557664394E0,1.391556740E0
5.306774650E0,1.258506179E-1,-4.613334656E0,1.337568283E0
5.311596682E0,1.507150531E-1,-4.672503471E0,1.259884834E0
5.316418713E0,1.533424258E-1,-4.701557159E0,1.178838730E0
5.321240744E0,1.592519879E-1,-4.755330086E0,1.083657265E0
5.326062827E0,1.868232489E-1,-4.801382542E0,9.886837006E-1
5.330884859E0,2.028027773E-1,-4.843120575E0,9.129810333E-1
5.335706890E0,2.111284137E-1,-4.883955479E0,8.074760437E-1
5.340528921E0,2.406883836E-1,-4.908159733E0,6.948347092E-1
5.345350952E0,2.320017219E-1,-4.945450783E0,5.941143036E-1
5.350172984E0,2.400996983E-1,-4.988438606E0,4.824867249E-1
5.354995067E0,2.627756000E-1,-5.011869907E0,3.885736465E-1
5.359817098E0,2.809345126E-1,-5.019100189E0,3.002519608E-1
5.364639130E0,3.077570796E-1,-5.032670975E0,2.138147354E-1
5.369461161E0,3.097428977E-1,-5.054813862E0,1.303520203E-1
5.374283192E0,3.107584715E-1,-5.068599701E0,4.613971710E-2
5.379105223E0,3.178560734E-1,-5.079819679E0,7.632255554E-3
5.383927307E0,3.285445273E-1,-5.090675354E0,-3.556632996E-2
5.388749338E0,3.545646966E-1,-5.098614693E0,-8.121109009E-2
5.393571369E0,3.550462723E-1,-5.077141762E0,-1.008071899E-1
5.398393400E0,3.621798456E-1,-5.079944611E0,-1.208038330E-1
5.403215432E0,3.600462377E-1,-5.080461979E0,-1.378555298E-1
5.408037463E0,3.687609732E-1,-5.078590393E0,-1.616659164E-1
5.412859546E0,3.796821237E-1,-5.059841633E0,-1.685142517E-1
5.417681577E0,3.698139191E-1,-5.049134731E0,-2.004680634E-1
5.422503609E0,3.735765815E-1,-5.032024384E0,-2.098598480E-1
5.427325640E0,3.905379474E-1,-5.008334637E0,-2.316131592E-1
5.432147671E0,3.643716276E-1,-4.988753319E0,-2.515230179E-1
5.436969702E0,3.771966994E-1,-4.974312305E0,-2.901368141E-1
5.441791786E0,3.761722744E-1,-4.945821762E0,-3.165183067E-1
5.446613817E0,3.813490272E-1,-4.925877571E0,-3.416428566E-1
5.451435848E0,3.864479065E-1,-4.904799461E0,-3.836317062E-1
5.456257880E0,3.686633110E-1,-4.877749443E0,-4.199008942E-1
5.461079911E0,3.695617318E-1,-4.866107464E0,-4.542522430E-1
5.465901942E0,3.722428679E-1,-4.831535339E0,-4.868431091E-1
5.470724025E0,3.693593740E-1,-4.790788174E0,-5.141744614E-1
5.475546057E0,3.774969876E-1,-4.761674881E0,-5.376176834E-1
5.480368088E0,3.607227802E-1,-4.759634972E0,-5.549073219E-1
5.485190119E0,3.668422699E-1,-4.711724758E0,-6.019492149E-1
5.490012150E0,3.646450043E-1,-4.688381672E0,-6.143121719E-1
5.494834182E0,3.458253145E-1,-4.652468681E0,-6.279435158E-1
5.499656265E0,3.497945666E-1,-4.638602257E0,-6.476588249E-1
5.504478296E0,3.610790372E-1,-4.600111961E0,-6.650919914E-1
5.509300327E0,3.629281521E-1,-4.560888290E0,-6.575388908E-1
5.514122359E0,3.555172086E-1,-4.529208183E0,-6.608805656E-1
5.518944390E0,3.640254140E-1,-4.497847557E0,-6.607270241E-1
5.523766421E0,3.551524878E-1,-4.460757256E0,-6.558489799E-1
5.528588505E0,3.457508087E-1,-4.425008297E0,-6.534004211E-1
5.533410536E0,3.527826071E-1,-4.394223690E0,-6.293177605E-1
5.538232567E0,3.394150734E-1,-4.364673138E0,-6.086883545E-1
5.543054598E0,3.405549526E-1,-4.319656372E0,-5.985012054E-1
5.547876630E0,3.624687195E-1,-4.280652046E0,-5.603742599E-1
5.552698661E0,3.563530743E-1,-4.255931854E0,-5.217223167E-1
5.557520744E0,3.607662618E-1,-4.218033791E0,-4.871110916E-1
5.562342775E0,3.568995893E-1,-4.175292015E0,-4.527959824E-1
5.567164807E0,3.677613735E-1,-4.163582802E0,-4.006433487E-1
5.571986838E0,3.637428880E-1,-4.112423897E0,-3.650951385E-1
5.576808869E0,3.619249463E-1,-4.088714600E0,-2.922019958E-1
5.581630900E0,3.673238158E-1,-4.056607246E0,-2.343664169E-1
5.586452984E0,3.575910926E-1,-4.022177696E0,-1.781578064E-1
5.591275015E0,3.580625057E-1,-3.992697001E0,-9.344863892E-2
5.596097046E0,3.533886075E-1,-3.957442999E0,-2.187824249E-2
5.600919077E0,3.498157859E-1,-3.924918175E0,5.357265472E-2
5.605741109E0,3.439150453E-1,-3.886876106E0,1.666135788E-1
5.610563140E0,3.453984857E-1,-3.849475145E0,2.553405762E-1
5.615385223E0,3.375324607E-1,-3.817607164E0,3.570575714E-1
5.620207255E0,3.251658976E-1,-3.798682213E0,4.541177750E-1
5.625029286E0,3.119007349E-1,-3.758182526E0,5.658779144E-1
5.629851317E0,3.024176061E-1,-3.723907948E0,6.710929871E-1
5.634673348E0,2.906921506E-1,-3.677019358E0,7.915449142E-1
5.639495380E0,2.716497779E-1,-3.646378040E0,8.987140656E-1
5.644317463E0,2.558330894E-1,-3.592822075E0,1.011960030E0
5.649139494E0,2.466026545E-1,-3.541858912E0,1.137490273E0
5.653961525E0,2.292588949E-1,-3.510487318E0,1.267086029E0
5.658783557E0,2.129776478E-1,-3.424883127E0,1.408056259E0
5.663605588E0,1.949032545E-1,-3.379868269E0,1.543797493E0
5.668427619E0,1.842278838E-1,-3.308900118E0,1.675653458E0
5.673249650E0,1.601043344E-1,-3.248210907E0,1.814463615E0
5.678071734E0,1.448187828E-1,-3.188495636E0,1.962639809E0
5.682893765E0,1.151902080E-1,-3.103898287E0,2.107086182E0
5.687715796E0,1.102338433E-1,-3.033011913E0,2.258566856E0
5.692537827E0,7.928550243E-2,-2.942718029E0,2.396749496E0
5.697359859E0,6.380349398E-2,-2.850139618E0,2.545521736E0
5.702181942E0,3.942519426E-2,-2.772359371E0,2.672559738E0
5.707003973E0,3.699260950E-2,-2.672668219E0,2.790982246E0
5.711826005E0,1.912164688E-2,-2.569251060E0,2.913850784E0
5.716648036E0,-1.208662987E-3,-2.479194641E0,3.014802933E0
5.721470067E0,-2.410650253E-2,-2.372913837E0,3.105731010E0
5.726292098E0,-2.570778131E-2,-2.265000582E0,3.202089310E0
5.731114130E0,-3.228056431E-2,-2.160439730E0,3.270318031E0
5.735936213E0,-3.418159485E-2,-2.061818123E0,3.324697495E0
5.740758244E0,-4.194134474E-2,-1.925131559E0,3.379504204E0
5.745580275E0,-4.212749004E-2,-1.831870794E0,3.419116974E0
5.750402307E0,-5.357652903E-2,-1.715144634E0,3.456606865E0
5.755224338E0,-5.081206560E-2,-1.588213205E0,3.491889954E0
5.760046369E0,-6.926476955E-2,-1.478607059E0,3.512937546E0
5.764868452E0,-7.368427515E-2,-1.368509173E0,3.535224915E0
5.769690484E0,-7.441776991E-2,-1.237533808E0,3.550295830E0
5.774512515E0,-8.641183376E-2,-1.126409531E0,3.568835258E0
5.779334546E0,-8.285704255E-2,-1.005120635E0,3.579996109E0
5.784156577E0,-7.627943158E-2,-8.951869011E-1,3.577733040E0
5.788978609E0,-7.577824593E-2,-7.654476762E-1,3.610964775E0
5.793800692E0,-7.240271568E-2,-6.444494128E-1,3.599502563E0
5.798622723E0,-7.761344314E-2,-5.176775455E-1,3.585143089E0
5.803444755E0,-8.379989862E-2,-4.160915315E-1,3.560640335E0
5.808266786E0,-8.824202418E-2,-2.856453061E-1,3.542657852E0
5.813088817E0,-9.774154425E-2,-1.596007049E-1,3.512001991E0
5.817910848E0,-9.886643291E-2,-4.615762830E-2,3.461457253E0
5.822732932E0,-9.982651472E-2,6.937310100E-2,3.413702011E0
5.827554963E0,-1.065630913E-1,2.087284327E-1,3.340010643E0
5.832376994E0,-9.872689843E-2,3.267945647E-1,3.281012535E0
5.837199025E0,-1.075353026E-1,4.561823308E-1,3.204406738E0
5.842021057E0,-1.378775388E-1,5.935261250E-1,3.114977837E0
5.846843088E0,-1.350387484E-1,7.140737176E-1,3.022303581E0
5.851665171E0,-1.459241509E-1,8.349111080E-1,2.910857201E0
5.856487202E0,-1.626961827E-1,9.528179765E-1,2.829667091E0
5.861309234E0,-1.677646339E-1,1.078875303E0,2.727334023E0
5.866131265E0,-1.807860732E-1,1.184670568E0,2.618236542E0
5.870953296E0,-1.951103806E-1,1.302871108E0,2.516751289E0
5.875775327E0,-2.029640377E-1,1.418205619E0,2.426471710E0
5.880597411E0,-2.299710512E-1,1.542901278E0,2.327096939E0
5.885419442E0,-2.312176824E-1,1.672514915E0,2.224643707E0
5.890241473E0,-2.658328414E-1,1.772575855E0,2.127501488E0
5.895063505E0,-2.745308280E-1,1.891274810E0,2.029728889E0
5.899885536E0,-2.781995237E-1,2.002475023E0,1.937329292E0
5.904707567E0,-2.987385094E-1,2.093266010E0,1.830018997E0
5.909529650E0,-3.173929453E-1,2.191471815E0,1.731779099E0
5.914351682E0,-3.212587833E-1,2.287612677E0,1.627111435E0
5.919173713E0,-3.177301586E-1,2.377106905E0,1.520875931E0
5.923995744E0,-3.320918381E-1,2.482725620E0,1.402383804E0
5.928817775E0,-3.428502381E-1,2.573570251E0,1.305205345E0
5.933639807E0,-3.464388847E-1,2.644865036E0,1.203102112E0
5.938461890E0,-3.403110206E-1,2.723062038E0,1.104566574E0
5.943283921E0,-3.399049640E-1,2.799782276E0,1.009696960E0
5.948105952E0,-3.533290327E-1,2.865416527E0,9.173955917E-1
5.952927984E0,-3.432607651E-1,2.921235561E0,8.540830612E-1
5.957750015E0,-3.439979851E-1,2.997000217E0,7.851715088E-1
5.962572098E0,-3.349114358E-1,3.060438156E0,7.299146652E-1
5.967394130E0,-3.345936835E-1,3.126904249E0,6.859998703E-1
5.972216161E0,-3.474387527E-1,3.185566425E0,6.702461243E-1
5.977038192E0,-3.549850881E-1,3.237481594E0,6.540288925E-1
5.981860223E0,-3.485043347E-1,3.280130386E0,6.577434540E-1
5.986682255E0,-3.405790627E-1,3.342022181E0,6.718702316E-1
5.991504286E0,-3.499151468E-1,3.385866404E0,6.832876205E-1
5.996326369E0,-3.544837832E-1,3.438945770E0,7.195167542E-1
6.001148400E0,-3.515292406E-1,3.501064301E0,7.482852936E-1
6.005970432E0,-3.573656678E-1,3.545658350E0,7.911005020E-1
6.010792463E0,-3.573532701E-1,3.570039749E0,8.228120804E-1
6.015614494E0,-3.667292297E-1,3.631396294E0,8.625364304E-1
6.020436577E0,-3.817244172E-1,3.668413401E0,8.886871338E-1
6.025258609E0,-3.614052236E-1,3.695145369E0,9.203157425E-1
6.030080640E0,-3.883048892E-1,3.729263544E0,9.645099640E-1
6.034902671E0,-3.857522011E-1,3.775235176E0,9.829158783E-1
6.039724702E0,-3.932823241E-1,3.825589418E0,1.014886856E0
6.044546734E0,-3.942191601E-1,3.880028486E0,1.043558121E0
6.049368765E0,-4.018638730E-1,3.907139063E0,1.080723763E0
6.054190848E0,-4.222829938E-1,3.938940287E0,1.141763687E0
6.059012880E0,-4.366203249E-1,3.977607250E0,1.190674782E0
6.063834911E0,-4.450610876E-1,4.039594173E0,1.250013351E0
6.068656942E0,-4.467313290E-1,4.081492901E0,1.324315071E0
6.073478973E0,-4.670267701E-1,4.112690449E0,1.397867203E0
6.078301005E0,-4.762820899E-1,4.152090073E0,1.480037689E0
6.083123088E0,-4.796527326E-1,4.194705486E0,1.573019028E0
6.087945119E0,-5.026370883E-1,4.253421783E0,1.674173355E0
6.092767150E0,-5.096087456E-1,4.301723480E0,1.766537666E0
6.097589182E0,-5.199978352E-1,4.332293034E0,1.860665321E0
6.102411213E0,-5.341812968E-1,4.390376568E0,1.936013222E0
6.107233296E0,-5.380376577E-1,4.441098690E0,2.013860703E0
6.112055327E0,-5.414999723E-1,4.480787277E0,2.082058907E0
6.116877359E0,-5.447674990E-1,4.510458469E0,2.154689789E0
6.121699390E0,-5.576239824E-1,4.553960800E0,2.196910858E0
6.126521421E0,-5.527485013E-1,4.608786583E0,2.221685410E0
6.131343452E0,-5.661202669E-1,4.640183449E0,2.255123138E0
6.136165484E0,-5.656923056E-1,4.683944702E0,2.255187035E0
6.140987567E0,-5.598512292E-1,4.729264259E0,2.248043060E0
6.145809598E0,-5.582638979E-1,4.780858994E0,2.244277000E0
6.150631630E0,-5.477945209E-1,4.806456566E0,2.223441124E0
6.155453661E0,-5.618551970E-1,4.853844643E0,2.206922531E0
6.160275692E0,-5.705527663E-1,4.881143570E0,2.177855968E0
6.165097723E0,-5.523633957E-1,4.889633179E0,2.163683414E0
6.169919807E0,-5.597720742E-1,4.916272163E0,2.135540962E0
6.174741838E0,-5.723088980E-1,4.950355530E0,2.098209381E0
6.179563869E0,-5.564855337E-1,4.963209152E0,2.094659805E0
6.184385900E0,-5.539617538E-1,4.969146252E0,2.081740856E0
6.189207932E0,-5.609537363E-1,4.986112595E0,2.080942631E0
6.194029963E0,-5.618440509E-1,4.983046055E0,2.071919918E0
6.198852046E0,-5.622665882E-1,4.976667404E0,2.076147556E0
6.203674077E0,-5.501609445E-1,4.982508183E0,2.078062534E0
6.208496109E0,-5.456236005E-1,4.969522476E0,2.088455200E0
6.213318140E0,-5.532581806E-1,4.943680763E0,2.104916573E0
6.218140171E0,-5.560503006E-1,4.939687729E0,2.098811626E0
6.222962202E0,-5.525527596E-1,4.924029350E0,2.101248741E0
6.227784286E0,-5.473576784E-1,4.911093235E0,2.077636242E0
6.232606317E0,-5.401350856E-1,4.872159958E0,2.072241306E0
6.237428348E0,-5.391009450E-1,4.861104012E0,2.058870792E0
6.242250380E0,-5.368801355E-1,4.815786839E0,2.035241604E0
6.247072411E0,-5.308297873E-1,4.793660164E0,1.988339424E0
6.251894494E0,-5.218966007E-1,4.748117447E0,1.920690536E0
6.256716525E0,-5.039348006E-1,4.729468822E0,1.873112679E0
6.261538557E0,-5.018548369E-1,4.691100121E0,1.802679062E0
6.266360588E0,-5.072053075E-1,4.631989956E0,1.739511490E0
6.271182619E0,-4.971227050E-1,4.601162910E0,1.653842926E0
6.276004650E0,-4.822865725E-1,4.553339958E0,1.578201294E0
6.280826734E0,-4.637845457E-1,4.507693768E0,1.523468018E0
6.285648765E0,-4.535489678E-1,4.481105328E0,1.455197334E0
6.290470796E0,-4.444022775E-1,4.418656349E0,1.398675919E0
6.295292827E0,-4.494621158E-1,4.376674175E0,1.351708412E0
6.300114859E0,-4.270174503E-1,4.317036152E0,1.313307762E0
6.304936890E0,-4.201565981E-1,4.270963192E0,1.298009872E0
6.309758973E0,-4.110425115E-1,4.212322712E0,1.259412766E0
6.314581005E0,-4.130350053E-1,4.161584377E0,1.239571571E0
6.319403036E0,-3.951838613E-1,4.103375435E0,1.220748901E0
6.324225067E0,-3.936512768E-1,4.050999641E0,1.207917213E0
6.329047098E0,-3.823104501E-1,3.998669624E0,1.183347702E0
6.333869130E0,-3.721979260E-1,3.943041086E0,1.172359467E0
6.338691213E0,-3.708046079E-1,3.902181864E0,1.148796082E0
6.343513244E0,-3.606304526E-1,3.850106239E0,1.111701012E0
6.348335275E0,-3.658301234E-1,3.804971933E0,1.080358505E0
6.353157307E0,-3.760372102E-1,3.743098021E0,1.023829460E0
6.357979338E0,-3.784435391E-1,3.692128658E0,9.840507507E-1
6.362801369E0,-3.686710596E-1,3.640472174E0,9.312925339E-1
6.367623452E0,-3.589230776E-1,3.590748310E0,8.608789444E-1
6.372445484E0,-3.567833304E-1,3.552737951E0,8.015775681E-1
6.377267515E0,-3.517228067E-1,3.489622593E0,7.486553192E-1
6.382089546E0,-3.691684306E-1,3.445889473E0,6.866178513E-1
6.386911577E0,-3.518744111E-1,3.389551878E0,6.262922287E-1
6.391733661E0,-3.407544792E-1,3.338744640E0,5.736570358E-1
6.396555692E0,-3.538326323E-1,3.274569273E0,5.299110413E-1
6.401377723E0,-3.446477354E-1,3.229586124E0,5.153808594E-1
6.406199755E0,-3.477098644E-1,3.152717829E0,4.894657135E-1
6.411021786E0,-3.404352665E-1,3.083920240E0,4.763212204E-1
6.415843817E0,-3.454946578E-1,3.009093046E0,4.675054550E-1
6.420665900E0,-3.317164481E-1,2.946258545E0,4.771776199E-1
6.425487932E0,-3.394677043E-1,2.856313467E0,4.944591522E-1
6.430309963E0,-3.339245617E-1,2.795430422E0,5.097532272E-1
6.435131994E0,-3.197052777E-1,2.723130703E0,5.443696976E-1
6.439954025E0,-3.083281517E-1,2.647954464E0,5.945386887E-1
6.444776057E0,-3.006500602E-1,2.577126980E0,6.363344193E-1
6.449598088E0,-2.772712111E-1,2.494082212E0,6.733207703E-1
6.454420171E0,-2.723504901E-1,2.404934168E0,7.197065353E-1
6.459242202E0,-2.567768097E-1,2.328723192E0,7.599105835E-1
6.464064234E0,-2.432509214E-1,2.247533798E0,8.081426620E-1
6.468886265E0,-2.205839008E-1,2.158993959E0,8.618803024E-1
6.473708296E0,-2.157499492E-1,2.073843956E0,9.103260040E-1
6.478530327E0,-2.080092281E-1,1.990823746E0,9.748010635E-1
6.483352411E0,-1.875514835E-1,1.894357800E0,1.039666176E0
6.488174442E0,-1.719481498E-1,1.817702889E0,1.097727776E0
6.492996473E0,-1.561073512E-1,1.711970925E0,1.170331001E0
6.497818505E0,-1.373773515E-1,1.581926823E0,1.253726006E0
6.502640536E0,-1.334576160E-1,1.492915630E0,1.328781128E0
6.507462567E0,-1.073013693E-1,1.400485039E0,1.421616554E0
6.512284650E0,-1.001287401E-1,1.308986068E0,1.529837608E0
6.517106682E0,-8.250017464E-2,1.205820799E0,1.668275833E0
6.521928713E0,-7.727250457E-2,1.103987575E0,1.791462898E0
6.526750744E0,-6.061476469E-2,9.924969673E-1,1.914937019E0
6.531572775E0,-7.340112329E-2,8.770142794E-1,2.066163063E0
6.536394859E0,-6.576949358E-2,7.620726824E-1,2.193710327E0
6.541216890E0,-7.156980038E-2,6.533835530E-1,2.341812134E0
6.546038921E0,-4.807490110E-2,5.326464772E-1,2.494900703E0
6.550860952E0,-5.326506495E-2,4.247927070E-1,2.644594193E0
6.555682984E0,-5.284836888E-2,2.983826697E-1,2.801642418E0
6.560505015E0,-6.890097260E-2,1.758922189E-1,2.927791595E0
6.565327098E0,-6.723660231E-2,5.585262924E-2,3.060107231E0
6.570149130E0,-7.585030794E-2,-6.330098212E-2,3.178256035E0
6.574971161E0,-8.210355043E-2,-1.984813958E-1,3.284637451E0
6.579793192E0,-7.800734043E-2,-3.249365091E-1,3.380460739E0
6.584615223E0,-7.967400551E-2,-4.548738599E-1,3.452582359E0
6.589437255E0,-8.143681288E-2,-5.932869911E-1,3.499848366E0
6.594259286E0,-7.406616211E-2,-7.129302025E-1,3.552176476E0
6.599081369E0,-8.295214176E-2,-8.474155664E-1,3.562982559E0
6.603903400E0,-8.076250553E-2,-9.743021727E-1,3.583742142E0
6.608725432E0,-8.436244726E-2,-1.104464769E0,3.597766876E0
6.613547463E0,-7.106679678E-2,-1.235629320E0,3.612304688E0
6.618369494E0,-6.723278761E-2,-1.366780758E0,3.609511375E0
6.623191577E0,-5.476742983E-2,-1.499222755E0,3.603855133E0
6.628013609E0,-4.671090841E-2,-1.605471373E0,3.594250679E0
6.632835640E0,-4.398953915E-2,-1.745394707E0,3.574858665E0
6.637657671E0,-3.552752733E-2,-1.880673647E0,3.570920944E0
6.642479702E0,-4.016441107E-2,-2.010197639E0,3.545522690E0
6.647301734E0,-2.636313438E-2,-2.136314869E0,3.534694672E0
6.652123817E0,2.746284008E-3,-2.268606424E0,3.512298584E0
6.656945848E0,1.168382168E-2,-2.384189844E0,3.480879784E0
6.661767880E0,3.567326069E-2,-2.504527569E0,3.448975563E0
6.666589911E0,4.165637493E-2,-2.629407883E0,3.399989128E0
6.671411942E0,6.246864796E-2,-2.752765894E0,3.338877678E0
6.676233973E0,7.817715406E-2,-2.857661724E0,3.266971588E0
6.681056057E0,8.920663595E-2,-2.968980312E0,3.186781883E0
6.685878088E0,1.151494384E-1,-3.060125828E0,3.105578423E0
6.690700119E0,1.394912004E-1,-3.172722340E0,3.006718636E0
6.695522150E0,1.529904306E-1,-3.286152363E0,2.896262169E0
6.700344182E0,1.798130572E-1,-3.373800755E0,2.801746368E0
6.705166265E0,2.128793597E-1,-3.461689949E0,2.676576614E0
6.709988296E0,2.272562981E-1,-3.544738770E0,2.580552101E0
6.714810327E0,2.503748536E-1,-3.633360863E0,2.481354713E0
6.719632359E0,2.511552572E-1,-3.730699778E0,2.362192154E0
6.724454390E0,2.809421420E-1,-3.798247576E0,2.258907318E0
6.729276421E0,2.976363301E-1,-3.871549368E0,2.174983978E0
6.734098452E0,3.021368086E-1,-3.933495522E0,2.073239326E0
6.738920536E0,3.039142191E-1,-3.988517761E0,1.989415169E0
6.743742567E0,3.204922974E-1,-4.048309803E0,1.901861191E0
6.748564598E0,3.407994807E-1,-4.113692760E0,1.821154594E0
6.753386630E0,3.369011283E-1,-4.154494286E0,1.750679970E0
6.758208661E0,3.407739997E-1,-4.212172031E0,1.678236961E0
6.763030692E0,3.602774739E-1,-4.242281914E0,1.604811668E0
6.767852775E0,3.568657041E-1,-4.294746399E0,1.518212318E0
6.772674807E0,3.635721505E-1,-4.322722912E0,1.449279785E0
6.777496838E0,3.406296372E-1,-4.358174801E0,1.366608620E0
6.782318869E0,3.366724849E-1,-4.391383171E0,1.301034927E0
6.787140900E0,3.514280319E-1,-4.423246384E0,1.207993507E0
6.791962984E0,3.356218338E-1,-4.447760582E0,1.117188454E0
6.796785015E0,3.428326845E-1,-4.469466686E0,1.036653519E0
6.801607046E0,3.584805727E-1,-4.526496887E0,9.314603806E-1
6.806429077E0,3.466445208E-1,-4.546977520E0,8.192977905E-1
6.811251109E0,3.395312428E-1,-4.569108486E0,7.130727768E-1
6.816073140E0,3.488943577E-1,-4.598803520E0,6.113443375E-1
6.820895171E0,3.318016529E-1,-4.612060070E0,5.162649155E-1
6.825717255E0,3.325811625E-1,-4.632774353E0,4.228649139E-1
6.830539286E0,3.416498303E-1,-4.657355785E0,3.405284882E-1
6.835361317E0,3.352852464E-1,-4.676265717E0,2.703084946E-1
6.840183348E0,3.434720039E-1,-4.712104797E0,1.892595291E-1
6.845005380E0,3.460136652E-1,-4.725478172E0,1.283683777E-1
6.849827463E0,3.383299708E-1,-4.734329224E0,7.672214508E-2
6.854649494E0,3.505250216E-1,-4.772162437E0,3.064346313E-2
6.859471525E0,3.577526212E-1,-4.781599998E0,-7.574081421E-3
6.864293557E0,3.565664291E-1,-4.785403252E0,-4.997730255E-2
6.869115588E0,3.675690293E-1,-4.805113316E0,-6.913995743E-2
6.873937671E0,3.599584699E-1,-4.825224876E0,-8.902263641E-2
6.878759702E0,3.555164933E-1,-4.852965355E0,-1.000862122E-1
6.883581734E0,3.592804372E-1,-4.863290787E0,-1.214714050E-1
6.888403765E0,3.714185059E-1,-4.892094612E0,-1.412525177E-1
6.893225796E0,3.862568140E-1,-4.910755157E0,-1.689615250E-1
6.898047827E0,3.861178756E-1,-4.925356865E0,-1.806416512E-1
6.902869859E0,3.807967007E-1,-4.927584171E0,-2.169327736E-1
6.907691942E0,3.919899464E-1,-4.949831963E0,-2.275414467E-1
6.912513973E0,3.876160979E-1,-4.980141640E0,-2.375907898E-1
6.917336005E0,3.822408915E-1,-5.004283428E0,-2.649073601E-1
6.922158036E0,3.951469958E-1,-5.021176338E0,-2.795066833E-1
6.926980067E0,4.072193503E-1,-5.033306599E0,-3.016467094E-1
6.931802098E0,3.947449327E-1,-5.046751022E0,-3.144874573E-1
6.936624182E0,3.912978172E-1,-5.072394371E0,-3.394198418E-1
6.941446213E0,3.896481097E-1,-5.081627846E0,-3.631992340E-1
6.946268244E0,4.006629586E-1,-5.108053207E0,-3.653745651E-1
6.951090275E0,4.075970054E-1,-5.124257088E0,-3.614006042E-1
6.955912307E0,4.008651376E-1,-5.130359650E0,-3.655004501E-1
6.960734390E0,3.792338669E-1,-5.146775246E0,-3.572402000E-1
6.965556421E0,3.940594196E-1,-5.189130783E0,-3.436775208E-1
6.970378452E0,3.734567463E-1,-5.191804886E0,-3.246760368E-1
6.975200484E0,3.747253418E-1,-5.183600426E0,-2.905802727E-1
6.980022515E0,3.511103392E-1,-5.173056602E0,-2.567744255E-1
6.984844546E0,3.610424399E-1,-5.193731785E0,-1.956591606E-1
6.989666630E0,3.588502407E-1,-5.172745705E0,-1.442365646E-1
6.994488661E0,3.539716303E-1,-5.176054478E0,-7.842159271E-2
6.999310692E0,3.426127732E-1,-5.175016880E0,-2.324008942E-2
7.004132723E0,3.245058060E-1,-5.175765991E0,4.177284241E-2
7.008954755E0,3.114323616E-1,-5.168862820E0,1.107454300E-1
7.013776786E0,3.150494695E-1,-5.161565781E0,1.765794754E-1
7.018598869E0,3.111270666E-1,-5.152872086E0,2.298612595E-1
7.023420900E0,3.031564653E-1,-5.148859024E0,2.945976257E-1
7.028242932E0,2.848056555E-1,-5.135299683E0,3.326177597E-1
7.033064963E0,2.821617723E-1,-5.106369019E0,3.643617630E-1
7.037886994E0,2.663427591E-1,-5.083753586E0,4.186248779E-1
7.042709077E0,2.574663758E-1,-5.055607319E0,4.512338638E-1
7.047531109E0,2.505238652E-1,-5.029235363E0,4.837999344E-1
7.052353140E0,2.381225228E-1,-4.998789310E0,4.984693527E-1
7.057175171E0,2.334342003E-1,-4.984760761E0,5.288372040E-1
7.061997202E0,2.218396664E-1,-4.946542740E0,5.497903824E-1
7.066819234E0,2.140851617E-1,-4.909446716E0,5.698232651E-1
7.071641317E0,2.244604826E-1,-4.879526615E0,5.985355377E-1
7.076463348E0,2.146787643E-1,-4.844900608E0,6.311817169E-1
7.081285380E0,1.991617680E-1,-4.809305191E0,6.726179123E-1
7.086107411E0,1.994170547E-1,-4.766860485E0,7.204952240E-1
7.090929442E0,1.844474673E-1,-4.725988865E0,7.700538635E-1
7.095751473E0,1.842414141E-1,-4.672432423E0,8.249254227E-1
7.100573505E0,1.786798835E-1,-4.630202293E0,8.720264435E-1
7.105395588E0,1.571348310E-1,-4.582668304E0,9.245643616E-1
7.110217619E0,1.569071412E-1,-4.527478218E0,9.897289276E-1
7.115039650E0,1.531231701E-1,-4.477799416E0,1.063931465E0
7.119861682E0,1.519794464E-1,-4.420528412E0,1.134045601E0
7.124683713E0,1.346979737E-1,-4.358149529E0,1.194150925E0
7.129505796E0,1.410121918E-1,-4.302574635E0,1.241847038E0
7.134327827E0,1.210693121E-1,-4.252636433E0,1.302266121E0
7.139149859E0,1.264934540E-1,-4.173649311E0,1.346690178E0
7.143971890E0,1.099081635E-1,-4.113490105E0,1.375164032E0
7.148793921E0,1.122341156E-1,-4.037425518E0,1.400817871E0
7.153615952E0,1.133990884E-1,-3.972927094E0,1.427207947E0
7.158438036E0,1.220822334E-1,-3.910332918E0,1.442340851E0
7.163260067E0,1.086937189E-1,-3.842468977E0,1.443825722E0
7.168082098E0,1.164874136E-1,-3.766837597E0,1.444762230E0
7.172904130E0,1.038270295E-1,-3.686945915E0,1.443905830E0
7.177726161E0,1.079642773E-1,-3.611128807E0,1.451989174E0
7.182548192E0,9.306901693E-2,-3.524814606E0,1.461724281E0
7.187370275E0,8.554992080E-2,-3.438764095E0,1.469514847E0
7.192192307E0,9.261286259E-2,-3.374352694E0,1.487252235E0
7.197014338E0,7.836949825E-2,-3.297908306E0,1.500510216E0
7.201836369E0,7.618457079E-2,-3.191350222E0,1.533122063E0
7.206658400E0,7.643133402E-2,-3.121474743E0,1.569478989E0
7.211480484E0,7.296463847E-2,-3.018919230E0,1.594038963E0
7.216302515E0,5.599433184E-2,-2.930013180E0,1.642554283E0
7.221124546E0,4.443547130E-2,-2.809204102E0,1.687475204E0
7.225946577E0,4.514488578E-2,-2.714926481E0,1.743099213E0
7.230768609E0,2.548557520E-2,-2.609883308E0,1.785446167E0
7.235590640E0,9.072005749E-3,-2.507044077E0,1.814477921E0
7.240412723E0,-2.168953419E-3,-2.424170256E0,1.848094940E0
7.245234755E0,-6.173074245E-3,-2.335943222E0,1.867117882E0
7.250056786E0,-2.006345987E-2,-2.211082697E0,1.893020630E0
7.254878817E0,-2.158546448E-2,-2.106786966E0,1.903042793E0
7.259700848E0,-4.097050428E-2,-2.018184185E0,1.899591446E0
7.264522880E0,-5.222862959E-2,-1.923477769E0,1.882632256E0
7.269344963E0,-6.645655632E-2,-1.826192856E0,1.862949371E0
7.274166994E0,-8.401691914E-2,-1.718910098E0,1.834531784E0
7.278989025E0,-8.835411072E-2,-1.624317408E0,1.795043945E0
7.283811057E0,-9.285235405E-2,-1.526627302E0,1.754052162E0
7.288633088E0,-8.450311422E-2,-1.426974893E0,1.722362518E0
7.293455171E0,-9.451699257E-2,-1.337241411E0,1.680903435E0
7.298277202E0,-1.000930071E-1,-1.235734224E0,1.652445793E0
7.303099234E0,-9.764498472E-2,-1.165436387E0,1.602411270E0
7.307921265E0,-1.002768874E-1,-1.054619312E0,1.582318306E0
7.312743296E0,-1.126109362E-1,-9.725356102E-1,1.588644028E0
7.317565327E0,-1.056702137E-1,-8.748953938E-1,1.595195770E0
7.322387411E0,-1.079704165E-1,-7.951776981E-1,1.599718094E0
7.327209442E0,-8.692049980E-2,-6.962531805E-1,1.627438545E0
7.332031473E0,-1.019495130E-1,-5.913790464E-1,1.660568237E0
7.336853505E0,-9.051018953E-2,-5.116207600E-1,1.698051453E0
7.341675536E0,-9.037068486E-2,-4.378881454E-1,1.737655640E0
7.346497567E0,-8.084321022E-2,-3.463723660E-1,1.775949478E0
7.351319650E0,-7.943537831E-2,-2.682070136E-1,1.828619003E0
7.356141682E0,-8.085605502E-2,-1.880387068E-1,1.886249542E0
7.360963713E0,-7.398447394E-2,-1.131967306E-1,1.909546852E0
7.365785744E0,-7.152345777E-2,-3.664743900E-2,1.945287704E0
7.370607775E0,-6.835868955E-2,5.339276791E-2,1.979249954E0
7.375429807E0,-6.770199537E-2,1.183855832E-1,2.004385948E0
7.380251890E0,-5.856826901E-2,1.892336309E-1,2.020812988E0
7.385073921E0,-6.698945165E-2,2.704406977E-1,2.034613609E0
7.389895952E0,-6.896850467E-2,3.426133990E-1,2.069769859E0
7.394717984E0,-5.725601315E-2,4.198352396E-1,2.094063759E0
7.399540015E0,-7.002201676E-2,4.802197814E-1,2.120700836E0
7.404362098E0,-7.984477282E-2,5.558242798E-1,2.158084869E0
7.409184130E0,-7.608410716E-2,6.343326569E-1,2.205029488E0
7.414006161E0,-8.522856236E-2,7.094671726E-1,2.249574661E0
7.418828192E0,-1.074814498E-1,7.893117666E-1,2.318007469E0
7.423650223E0,-1.024635732E-1,8.746995330E-1,2.394724846E0
7.428472255E0,-1.063989401E-1,9.545558691E-1,2.477275848E0
7.433294338E0,-1.363901794E-1,1.036976576E0,2.557223320E0
7.438116369E0,-1.233908236E-1,1.140707374E0,2.658371925E0
7.442938400E0,-1.347582936E-1,1.222466469E0,2.757894516E0
7.447760432E0,-1.386775672E-1,1.310660005E0,2.844906807E0
7.452582463E0,-1.499001384E-1,1.401401043E0,2.919277191E0
7.457404494E0,-1.532468796E-1,1.489634156E0,3.003564835E0
7.462226577E0,-1.432103515E-1,1.578694820E0,3.066513062E0
7.467048609E0,-1.714764833E-1,1.689908743E0,3.122321129E0
7.471870640E0,-1.786127687E-1,1.776418805E0,3.161239624E0
7.476692671E0,-1.780283451E-1,1.867861509E0,3.181889534E0
7.481514702E0,-1.759556532E-1,1.974865079E0,3.188886642E0
7.486336734E0,-1.641800404E-1,2.079309464E0,3.177269936E0
7.491158817E0,-1.572095156E-1,2.163211346E0,3.160039902E0
7.495980848E0,-1.681722999E-1,2.271819115E0,3.125050545E0
7.500802880E0,-1.731956601E-1,2.373907089E0,3.078113556E0
7.505624911E0,-1.626687646E-1,2.468245029E0,3.035818100E0
7.510446942E0,-1.353915334E-1,2.558423519E0,2.990851402E0
7.515269025E0,-1.329984665E-1,2.667061329E0,2.941865921E0
7.520091057E0,-1.350594759E-1,2.771474600E0,2.899514198E0
7.524913088E0,-1.270250678E-1,2.845265388E0,2.862430573E0
7.529735119E0,-1.158005595E-1,2.937507629E0,2.824545860E0
7.534557150E0,-1.058554649E-1,3.044574738E0,2.791727066E0
7.539379182E0,-1.030097902E-1,3.127054453E0,2.760294914E0
7.544201265E0,-7.938009501E-2,3.214925051E0,2.723022461E0
7.549023296E0,-7.650402188E-2,3.308170795E0,2.689386368E0
7.553845327E0,-7.019257545E-2,3.368567705E0,2.647355080E0
7.558667359E0,-5.296996236E-2,3.445222139E0,2.596890450E0
7.563489390E0,-4.360809922E-2,3.527457237E0,2.546343803E0
7.568311473E0,-3.591817617E-2,3.598648071E0,2.487328529E0
7.573133505E0,-3.312987089E-2,3.686339378E0,2.413839340E0
7.577955536E0,-3.026401997E-2,3.750017643E0,2.335456848E0
7.582777567E0,-5.614250898E-3,3.819699764E0,2.246209145E0
7.587599598E0,4.414021969E-4,3.877527475E0,2.140120506E0
7.592421630E0,1.556584239E-2,3.943992138E0,2.025615692E0
7.597243713E0,2.302300930E-2,4.016830444E0,1.921842575E0
7.602065744E0,4.335787892E-2,4.084216118E0,1.813291550E0
7.606887775E0,3.595924377E-2,4.136726379E0,1.701193810E0
7.611709807E0,4.628005624E-2,4.174497128E0,1.590369225E0
7.616531838E0,5.514690280E-2,4.241897583E0,1.477281570E0
7.621353869E0,4.823222756E-2,4.272097588E0,1.378706932E0
7.626175952E0,7.322624326E-2,4.348942757E0,1.275574684E0
7.630997984E0,9.656336904E-2,4.387657166E0,1.190643311E0
7.635820015E0,9.423983097E-2,4.412320614E0,1.119177818E0
7.640642046E0,8.522221446E-2,4.449409962E0,1.033758163E0
7.645464077E0,8.480748534E-2,4.499006271E0,9.547557831E-1
7.650286109E0,8.927655220E-2,4.530093193E0,8.786125183E-1
7.655108192E0,1.116045117E-1,4.565591335E0,8.149805069E-1
7.659930223E0,1.167762280E-1,4.600823402E0,7.483568192E-1
7.664752255E0,1.249706745E-1,4.616787910E0,6.799964905E-1
7.669574286E0,1.322742105E-1,4.641122818E0,6.159324646E-1
7.674396317E0,1.265977919E-1,4.660736561E0,5.609655380E-1
7.679218400E0,1.374849677E-1,4.693717003E0,4.936418533E-1
7.684040432E0,1.419964433E-1,4.720982075E0,4.116010666E-1
7.688862463E0,1.470692158E-1,4.719953060E0,3.579235077E-1
7.693684494E0,1.584858596E-1,4.743377686E0,2.896165848E-1
7.698506525E0,1.544794440E-1,4.761374474E0,2.198314667E-1
7.703328557E0,1.456032991E-1,4.784857750E0,1.498231888E-1
7.708150640E0,1.580820978E-1,4.792308331E0,1.046781540E-1
7.712972671E0,1.534873247E-1,4.807765007E0,5.333995819E-2
7.717794702E0,1.782467961E-1,4.808606148E0,4.207611084E-3
7.722616734E0,1.713294983E-1,4.823516846E0,-4.034233093E-2
7.727438765E0,1.840260029E-1,4.805970192E0,-8.028316498E-2
7.732260848E0,1.757165194E-1,4.819428444E0,-1.107950211E-1
7.737082880E0,1.822683215E-1,4.814845085E0,-1.378765106E-1
7.741904911E0,1.880293489E-1,4.820951462E0,-1.615228653E-1
7.746726942E0,1.847125292E-1,4.817462921E0,-1.613988876E-1
7.751548973E0,1.999229193E-1,4.815117359E0,-1.960906982E-1
7.756371005E0,1.762665510E-1,4.799681664E0,-1.997785568E-1
7.761193088E0,1.988061070E-1,4.780666351E0,-1.940250397E-1
7.766015119E0,1.899039745E-1,4.772417545E0,-1.812219620E-1
7.770837150E0,1.903755069E-1,4.771339417E0,-1.709222794E-1
7.775659182E0,1.729403734E-1,4.758288860E0,-1.714706421E-1
7.780481213E0,1.628365815E-1,4.740468979E0,-1.469888687E-1
7.785303244E0,1.914163828E-1,4.728583336E0,-1.202106476E-1
7.790125327E0,1.835072041E-1,4.704689503E0,-1.102514267E-1
7.794947359E0,1.859973371E-1,4.669909477E0,-8.246326447E-2
7.799769390E0,1.931211948E-1,4.652931213E0,-4.760932922E-2
7.804591421E0,1.920486689E-1,4.629755497E0,-8.100509644E-3
7.809413452E0,1.984935403E-1,4.606290817E0,1.929664612E-2
7.814235484E0,2.102004886E-1,4.564595222E0,5.610466003E-2
7.819057567E0,2.035657167E-1,4.552399158E0,1.142396927E-1
7.823879598E0,1.955311298E-1,4.520579815E0,1.709327698E-1
7.828701630E0,2.006211877E-1,4.484616756E0,2.177886963E-1
7.833523661E0,2.082560658E-1,4.430056572E0,2.846460342E-1
7.838345692E0,1.958082914E-1,4.391544819E0,3.523502350E-1
7.843167775E0,2.065442204E-1,4.364123344E0,4.291992188E-1
7.847989807E0,1.878995299E-1,4.322618008E0,5.055952072E-1
7.852811838E0,1.902166605E-1,4.281222820E0,5.886373520E-1
7.857633869E0,2.099259496E-1,4.224307537E0,6.746978760E-1
7.862455900E0,1.956527233E-1,4.184017658E0,7.744703293E-1
7.867277932E0,1.903872192E-1,4.125573158E0,8.580188751E-1
7.872100015E0,1.833456159E-1,4.065610409E0,9.623661041E-1
7.876922046E0,1.875783205E-1,4.019476891E0,1.064706802E0
7.881744077E0,1.922152638E-1,3.950039864E0,1.155461311E0
7.886566109E0,1.851381958E-1,3.885908365E0,1.257315636E0
7.891388140E0,1.817829609E-1,3.825653553E0,1.357027054E0
7.896210171E0,1.879423857E-1,3.759581327E0,1.450970650E0
7.901032255E0,1.949408054E-1,3.679262161E0,1.563033104E0
7.905854286E0,1.751116514E-1,3.603603125E0,1.668017387E0
7.910676317E0,1.569600105E-1,3.518204212E0,1.769520760E0
7.915498348E0,1.473177075E-1,3.456357956E0,1.855537415E0
7.920320380E0,1.374711990E-1,3.374966145E0,1.951176643E0
7.925142463E0,1.379886866E-1,3.282209873E0,2.038453102E0
7.929964494E0,1.354309320E-1,3.212662220E0,2.136485100E0
7.934786525E0,1.354610324E-1,3.113582611E0,2.218950272E0
7.939608557E0,1.079973578E-1,3.032713413E0,2.296628952E0
7.944430588E0,1.041608453E-1,2.955569506E0,2.379084587E0
7.949252619E0,9.144824743E-2,2.846263885E0,2.446037292E0
7.954074702E0,8.400601149E-2,2.739323616E0,2.504679680E0
7.958896734E0,7.209897041E-2,2.644282103E0,2.577782631E0
7.963718765E0,5.437320471E-2,2.539503574E0,2.624744415E0
7.968540796E0,4.630714655E-2,2.445288658E0,2.660018921E0
7.973362827E0,2.510076761E-2,2.332882166E0,2.708793640E0
7.978184911E0,1.227778196E-2,2.228529930E0,2.753219604E0
7.983006942E0,1.615560055E-2,2.125070095E0,2.781473160E0
7.987828973E0,9.332358837E-3,1.999750972E0,2.811618805E0
7.992651005E0,-8.022546768E-3,1.898081422E0,2.828283310E0
7.997473036E0,-1.913577318E-2,1.791328192E0,2.859094620E0
8.002295067E0,-2.373117208E-2,1.666326761E0,2.887456894E0
8.007117150E0,-3.118711710E-2,1.560305715E0,2.915959358E0
8.011939182E0,-2.921026945E-2,1.428997993E0,2.923246384E0
8.016761213E0,-4.154038429E-2,1.325166821E0,2.934626579E0
8.021583244E0,-4.863888025E-2,1.208219051E0,2.944293022E0
8.026405275E0,-5.851668119E-2,1.091423512E0,2.945258141E0
8.031227359E0,-5.769836903E-2,9.893218279E-1,2.943692207E0
8.036049390E0,-5.060184002E-2,8.709467649E-1,2.938569069E0
8.040871421E0,-4.168051481E-2,7.639846802E-1,2.915715218E0
8.045693452E0,-6.523060799E-2,6.590725183E-1,2.909964561E0
8.050515484E0,-5.874937773E-2,5.587763786E-1,2.877222061E0
8.055337515E0,-5.307486653E-2,4.394389391E-1,2.836777687E0
8.060159598E0,-4.906895757E-2,3.527439237E-1,2.789960861E0
8.064981630E0,-3.585773706E-2,2.486763597E-1,2.765555382E0
8.069803661E0,-2.633014321E-2,1.502586603E-1,2.706275940E0
8.074625692E0,-2.644768357E-2,6.375038624E-2,2.640919685E0
8.079447723E0,-2.893295884E-2,-4.884898663E-2,2.592254639E0
8.084269755E0,-3.610125184E-2,-1.322477758E-1,2.549560547E0
8.089091838E0,-1.827332377E-2,-2.243947536E-1,2.492536545E0
8.093913869E0,-1.008445024E-2,-3.165983260E-1,2.428389549E0
8.098735900E0,-2.497446537E-2,-3.966683149E-1,2.384601593E0
8.103557932E0,-2.253723145E-2,-4.989281297E-1,2.337225914E0
8.108379963E0,-2.569130063E-2,-5.609167814E-1,2.294593811E0
8.113202046E0,-3.242859244E-2,-6.481842995E-1,2.275759697E0
8.118024077E0,-4.655006528E-2,-7.256848216E-1,2.230438232E0
8.122846109E0,-5.648517609E-2,-8.028160930E-1,2.203985214E0
8.127668140E0,-5.790069699E-2,-8.768218160E-1,2.185507774E0
8.132490171E0,-7.032188773E-2,-9.522908926E-1,2.154564857E0
8.137312202E0,-8.208045363E-2,-1.030212879E0,2.125392914E0
8.142134286E0,-1.020251215E-1,-1.100775003E0,2.106204033E0
8.146956317E0,-1.245101690E-1,-1.169784784E0,2.089673042E0
8.151778348E0,-1.366731524E-1,-1.233444571E0,2.038600922E0
8.156600380E0,-1.400445104E-1,-1.305974245E0,2.015013695E0
8.161422411E0,-1.622543931E-1,-1.378902197E0,1.987669945E0
8.166244494E0,-1.856267452E-1,-1.456807137E0,1.955213547E0
8.171066525E0,-1.875778437E-1,-1.534856081E0,1.918708801E0
8.175888557E0,-1.993401051E-1,-1.618887544E0,1.882785797E0
8.180710588E0,-2.005187571E-1,-1.683770895E0,1.825820923E0
8.185532619E0,-2.102511227E-1,-1.746243954E0,1.799101830E0
8.190354650E0,-2.404213548E-1,-1.840900898E0,1.754677773E0
8.195176734E0,-2.430225015E-1,-1.915121317E0,1.721149445E0
8.199998765E0,-2.442375422E-1,-1.985715985E0,1.691257477E0
8.204820796E0,-2.534069419E-1,-2.053857803E0,1.667294502E0
8.209642827E0,-2.570297122E-1,-2.138785124E0,1.645626068E0
8.214464859E0,-2.656455338E-1,-2.203436136E0,1.619000435E0
8.219286890E0,-2.693363726E-1,-2.305240393E0,1.619634628E0
8.224108973E0,-2.797610760E-1,-2.378547668E0,1.622365952E0
8.228931005E0,-2.630133033E-1,-2.443780422E0,1.624761581E0
8.233753036E0,-2.749315202E-1,-2.527354479E0,1.622017860E0
8.238575067E0,-2.793335617E-1,-2.626902580E0,1.623648643E0
8.243397098E0,-2.663395405E-1,-2.693670750E0,1.617733002E0
8.248219182E0,-2.607135773E-1,-2.788712025E0,1.625752449E0
8.253041213E0,-2.633415461E-1,-2.864279509E0,1.627348900E0
8.257863244E0,-2.619369924E-1,-2.952926636E0,1.616603851E0
8.262685275E0,-2.587223351E-1,-3.036741018E0,1.607827187E0
8.267507307E0,-2.606430054E-1,-3.120743036E0,1.590302467E0
8.272329338E0,-2.628067136E-1,-3.195455074E0,1.571195602E0
8.277151421E0,-2.675416470E-1,-3.273042202E0,1.570861816E0
8.281973452E0,-2.639389634E-1,-3.358495235E0,1.546312332E0
8.286795484E0,-2.699270248E-1,-3.428024769E0,1.537026405E0
8.291617515E0,-2.796072662E-1,-3.514045238E0,1.520308495E0
8.296439546E0,-2.763082683E-1,-3.592766047E0,1.500975609E0
8.301261630E0,-2.720918059E-1,-3.665616035E0,1.479112625E0
8.306083661E0,-2.790749669E-1,-3.761433840E0,1.459554672E0
8.310905692E0,-2.770919204E-1,-3.838494778E0,1.435171127E0
8.315727723E0,-2.819243968E-1,-3.906411886E0,1.429871559E0
8.320549755E0,-2.901900113E-1,-3.976183414E0,1.406688690E0
8.325371786E0,-2.997433841E-1,-4.026340008E0,1.395530701E0
8.330193869E0,-3.000936508E-1,-4.106099606E0,1.386916161E0
8.335015900E0,-3.071025014E-1,-4.180839539E0,1.367725372E0
8.339837932E0,-3.186359406E-1,-4.245879650E0,1.353547096E0
8.344659963E0,-3.265509605E-1,-4.298921585E0,1.336050034E0
8.349481994E0,-3.287889957E-1,-4.355631351E0,1.300953865E0
8.354304077E0,-3.279851079E-1,-4.427951813E0,1.275759697E0
8.359126109E0,-3.410157561E-1,-4.483687878E0,1.243772507E0
8.363948140E0,-3.419633210E-1,-4.537250996E0,1.212195396E0
8.368770171E0,-3.619924486E-1,-4.572014809E0,1.160765648E0
8.373592202E0,-3.749368489E-1,-4.639340401E0,1.120558739E0
8.378414286E0,-3.678878546E-1,-4.687828064E0,1.084403992E0
8.383236317E0,-3.648454547E-1,-4.724689960E0,1.041558266E0
8.388058348E0,-3.718108237E-1,-4.773859978E0,9.836835861E-1
8.392880380E0,-3.673405051E-1,-4.815001965E0,9.358987808E-1
8.397702411E0,-3.753790259E-1,-4.857614040E0,8.742618561E-1
8.402524442E0,-3.910830617E-1,-4.895741463E0,8.346605301E-1
8.407346525E0,-4.024155140E-1,-4.934097290E0,7.931442261E-1
8.412168557E0,-3.926068544E-1,-4.967896938E0,7.485284805E-1
8.416990588E0,-3.950583935E-1,-4.995904922E0,7.043914795E-1
8.421812619E0,-3.869239986E-1,-5.041972637E0,6.678829193E-1
8.426634650E0,-3.907923102E-1,-5.060586929E0,6.138648987E-1
8.431456682E0,-3.993129730E-1,-5.080380917E0,5.757799149E-1
8.436278765E0,-3.979082704E-1,-5.114442825E0,5.392484665E-1
8.441100796E0,-4.067555070E-1,-5.145934582E0,4.994411469E-1
8.445922827E0,-4.148442149E-1,-5.138972282E0,4.694843292E-1
8.450744859E0,-4.148750007E-1,-5.161549568E0,4.181976318E-1
8.455566890E0,-4.340503216E-1,-5.178890705E0,3.682575226E-1
8.460388973E0,-4.016749859E-1,-5.194526672E0,3.363437653E-1
8.465211005E0,-4.048021138E-1,-5.200008869E0,2.901077271E-1
8.470033036E0,-3.870704472E-1,-5.228664398E0,2.581386566E-1
8.474855067E0,-3.901008964E-1,-5.218234539E0,2.044935226E-1
8.479677098E0,-3.873867393E-1,-5.230812550E0,1.613798141E-1
8.484499130E0,-3.752130866E-1,-5.235198021E0,1.107711792E-1
8.489321213E0,-3.785526752E-1,-5.222899437E0,6.809139252E-2
8.494143244E0,-3.793482184E-1,-5.206994534E0,5.757331848E-3
8.498965275E0,-3.690397441E-1,-5.196937084E0,-2.851390839E-2
8.503787307E0,-3.632125854E-1,-5.204559803E0,-7.907009125E-2
8.508609338E0,-3.616806269E-1,-5.189117908E0,-1.017837524E-1
8.513431421E0,-3.644887209E-1,-5.169604778E0,-1.302833557E-1
8.518253452E0,-3.571232259E-1,-5.157927990E0,-1.586532593E-1
8.523075484E0,-3.588347137E-1,-5.137161732E0,-1.846666336E-1
8.527897515E0,-3.456482887E-1,-5.122841835E0,-2.047777176E-1
8.532719546E0,-3.451805711E-1,-5.090864182E0,-2.191643715E-1
8.537541630E0,-3.490559161E-1,-5.071065903E0,-2.231230736E-1
8.542363661E0,-3.286731541E-1,-5.046599388E0,-2.406606674E-1
8.547185692E0,-3.570826650E-1,-5.014964581E0,-2.527503967E-1
8.552007723E0,-3.518441617E-1,-4.988002777E0,-2.356033325E-1
8.556829755E0,-3.429796398E-1,-4.947631359E0,-2.479372025E-1
8.561651786E0,-3.532878757E-1,-4.923751354E0,-2.335577011E-1
8.566473869E0,-3.375743032E-1,-4.887471676E0,-2.404437065E-1
8.571295900E0,-3.438241482E-1,-4.855507851E0,-2.435011864E-1
8.576117932E0,-3.398846984E-1,-4.810966492E0,-2.380752563E-1
8.580939963E0,-3.534089923E-1,-4.786068916E0,-2.301907539E-1
8.585761994E0,-3.511598110E-1,-4.726877213E0,-2.139706612E-1
8.590584025E0,-3.524791002E-1,-4.695494652E0,-2.085886002E-1
8.595406109E0,-3.561845124E-1,-4.644036293E0,-2.068786621E-1
8.600228140E0,-3.518270254E-1,-4.604674339E0,-2.041211128E-1
8.605050171E0,-3.526845276E-1,-4.583329678E0,-1.859712601E-1
8.609872202E0,-3.577288687E-1,-4.526096344E0,-1.871461868E-1
8.614694234E0,-3.683090210E-1,-4.491537094E0,-1.932621002E-1
8.619516317E0,-3.679008782E-1,-4.444804668E0,-1.888465881E-1
8.624338348E0,-3.601342440E-1,-4.403867245E0,-1.869735718E-1
8.629160380E0,-3.690328598E-1,-4.354310036E0,-1.684994698E-1
8.633982411E0,-3.564884961E-1,-4.319961548E0,-1.417903900E-1
8.638804442E0,-3.667019606E-1,-4.279264450E0,-1.282968521E-1
8.643626473E0,-3.723320067E-1,-4.220151901E0,-1.052923203E-1
8.648448557E0,-3.709870875E-1,-4.189249039E0,-6.551170349E-2
8.653270588E0,-3.614395857E-1,-4.142286301E0,-3.397274017E-2
8.658092619E0,-3.484666348E-1,-4.076879501E0,7.370948792E-3
8.662914650E0,-3.558989167E-1,-4.038416386E0,5.263328552E-2
8.667736682E0,-3.549897373E-1,-3.999315262E0,1.030988693E-1
8.672558765E0,-3.528400660E-1,-3.944120407E0,1.649255753E-1
8.677380796E0,-3.457350433E-1,-3.902695179E0,2.214975357E-1
8.682202827E0,-3.383026719E-1,-3.853520632E0,2.849264145E-1
8.687024859E0,-3.435008526E-1,-3.818156242E0,3.541841507E-1
8.691846890E0,-3.407989740E-1,-3.757224560E0,4.175138474E-1
8.696668921E0,-3.407358229E-1,-3.716188192E0,4.942045212E-1
8.701491005E0,-3.407853842E-1,-3.659287453E0,5.748996735E-1
8.706313036E0,-3.310744166E-1,-3.609263659E0,6.537799835E-1
8.711135067E0,-3.185262084E-1,-3.568657875E0,7.382478714E-1
8.715957098E0,-3.173237443E-1,-3.525662422E0,8.153724670E-1
8.720779130E0,-3.223728836E-1,-3.457724094E0,8.829803467E-1
8.725601213E0,-3.119111359E-1,-3.424744606E0,9.747285843E-1
8.730423244E0,-2.953980565E-1,-3.362301350E0,1.054932594E0
8.735245275E0,-2.951956987E-1,-3.316081762E0,1.151309967E0
8.740067307E0,-2.944678664E-1,-3.252819061E0,1.241332054E0
8.744889338E0,-2.858832479E-1,-3.214520931E0,1.332338333E0
8.749711369E0,-2.848362327E-1,-3.147705078E0,1.432908058E0
8.754533452E0,-2.805506587E-1,-3.071729183E0,1.524054527E0
8.759355484E0,-2.789401710E-1,-3.026305914E0,1.617906570E0
8.764177515E0,-2.728036046E-1,-2.951937437E0,1.720579147E0
8.768999546E0,-2.753703594E-1,-2.886022329E0,1.835796356E0
8.773821577E0,-2.771748304E-1,-2.818039656E0,1.944519043E0
8.778643661E0,-2.663781643E-1,-2.749489307E0,2.036108971E0
8.783465692E0,-2.861553431E-1,-2.668735504E0,2.159662247E0
8.788287723E0,-2.853189111E-1,-2.579605341E0,2.268589020E0
8.793109755E0,-2.940227985E-1,-2.494458199E0,2.370141983E0
8.797931786E0,-2.957576811E-1,-2.412333012E0,2.488245010E0
8.802753869E0,-2.789697945E-1,-2.316802502E0,2.595399857E0
8.807575900E0,-2.905019522E-1,-2.222476721E0,2.707139015E0
8.812397932E0,-2.852798402E-1,-2.132068872E0,2.813871384E0
8.817219963E0,-2.910856009E-1,-2.026653767E0,2.922714233E0
8.822041994E0,-2.807610631E-1,-1.929222107E0,3.016875267E0
8.826864025E0,-2.774007320E-1,-1.814909339E0,3.095092773E0
8.831686109E0,-2.896043360E-1,-1.719808340E0,3.182389259E0
8.836508140E0,-2.722271681E-1,-1.624913454E0,3.249962807E0
8.841330171E0,-2.696924806E-1,-1.522069097E0,3.327606201E0
8.846152202E0,-2.786469162E-1,-1.411502481E0,3.384122849E0
8.850974234E0,-2.633810043E-1,-1.305290222E0,3.418220520E0
8.855796265E0,-2.586931884E-1,-1.173532009E0,3.466840744E0
8.860618348E0,-2.407785952E-1,-1.054741740E0,3.494003296E0
8.865440380E0,-2.454715967E-1,-9.321819544E-1,3.519929886E0
8.870262411E0,-2.296522856E-1,-8.321900964E-1,3.534952164E0
8.875084442E0,-2.219493985E-1,-7.010301948E-1,3.536586761E0
8.879906473E0,-2.281634808E-1,-5.805012584E-1,3.530729294E0
8.884728557E0,-2.063927054E-1,-4.526342750E-1,3.528046608E0
8.889550588E0,-1.946405172E-1,-3.246228695E-1,3.523674011E0
8.894372619E0,-1.830550432E-1,-2.022982240E-1,3.512764931E0
8.899194650E0,-1.713104248E-1,-9.998422861E-2,3.496455193E0
8.904016682E0,-1.484259367E-1,1.713448763E-2,3.471110344E0
8.908838765E0,-1.356295347E-1,1.252565384E-1,3.454610825E0
8.913660796E0,-1.097893119E-1,2.580052614E-1,3.420622826E0
8.918482827E0,-9.690555930E-2,3.903759718E-1,3.366738319E0
8.923304859E0,-8.947420120E-2,4.962866902E-1,3.322832108E0
8.928126890E0,-8.364179730E-2,6.021969318E-1,3.248237610E0
8.932948973E0,-6.355389953E-2,7.238765955E-1,3.191973686E0
8.937771005E0,-4.446116090E-2,8.591070771E-1,3.121747971E0
8.942593036E0,-1.776087284E-2,9.877022505E-1,3.038761139E0
8.947415067E0,-1.437970996E-2,1.093295455E0,2.959779739E0
8.952237098E0,1.123180985E-2,1.217877865E0,2.856117249E0
8.957059130E0,1.853069663E-2,1.317409277E0,2.756489754E0
8.961881213E0,2.791899443E-2,1.435255051E0,2.657345772E0
8.966703244E0,4.412570596E-2,1.544072986E0,2.546745300E0
8.971525275E0,5.040779710E-2,1.656065702E0,2.442662239E0
8.976347307E0,6.584471464E-2,1.755840778E0,2.318820000E0
8.981169338E0,8.060032129E-2,1.871218681E0,2.214719772E0
8.985991421E0,7.549074292E-2,1.964111090E0,2.127985954E0
8.990813452E0,8.615541458E-2,2.064577818E0,2.022775650E0
8.995635484E0,1.134130359E-1,2.165669680E0,1.917077065E0
9.000457515E0,1.080624461E-1,2.248434544E0,1.825267792E0
9.005279546E0,1.129410863E-1,2.356021881E0,1.736605644E0
9.010101630E0,1.228440404E-1,2.458739996E0,1.663075447E0
9.014923661E0,1.315970421E-1,2.536417007E0,1.571244240E0
9.019745692E0,1.376380324E-1,2.632185698E0,1.489832878E0
9.024567723E0,1.514500976E-1,2.706676960E0,1.434390068E0
9.029389755E0,1.523869634E-1,2.800693989E0,1.342785835E0
9.034211838E0,1.473479271E-1,2.858124256E0,1.280817032E0
9.039033869E0,1.540761590E-1,2.942330122E0,1.212615013E0
9.043855900E0,1.591947675E-1,3.021036386E0,1.144183159E0
9.048677932E0,1.756747961E-1,3.097864151E0,1.080331802E0
9.053499963E0,1.651352644E-1,3.156133652E0,1.004368782E0
9.058321994E0,1.836986542E-1,3.224486828E0,9.462003708E-1
9.063144077E0,1.869840026E-1,3.287411213E0,8.891153336E-1
9.067966109E0,1.952891350E-1,3.343643665E0,8.379192352E-1
9.072788140E0,2.050442696E-1,3.407376766E0,7.937984467E-1
9.077610171E0,2.067924142E-1,3.446337223E0,7.520236969E-1
9.082432202E0,2.041088939E-1,3.509473085E0,7.090291977E-1
9.087254234E0,2.211192846E-1,3.554720402E0,6.815462112E-1
9.092076317E0,2.291488647E-1,3.626295090E0,6.612348557E-1
9.096898348E0,2.344531417E-1,3.665434122E0,6.540679932E-1
9.101720380E0,2.454794049E-1,3.707917690E0,6.504840851E-1
9.106542411E0,2.445872426E-1,3.770286083E0,6.504774094E-1
9.111364442E0,2.594621778E-1,3.822524548E0,6.456918716E-1
9.116186525E0,2.496846318E-1,3.856070518E0,6.731462479E-1
9.121008557E0,2.692875266E-1,3.905427456E0,6.873731613E-1
9.125830588E0,2.838591933E-1,3.936925173E0,7.110567093E-1
9.130652619E0,2.648954988E-1,3.985082626E0,7.298126221E-1
9.135474650E0,2.795985937E-1,4.025796890E0,7.459869385E-1
9.140296734E0,2.958909273E-1,4.072020054E0,7.678794861E-1
9.145118765E0,2.912013531E-1,4.108067989E0,8.073759079E-1
9.149940796E0,2.956791520E-1,4.136085033E0,8.189392090E-1
9.154762827E0,2.819103599E-1,4.191711903E0,8.371391296E-1
9.159584859E0,2.966849208E-1,4.226931572E0,8.618650436E-1
9.164406890E0,3.113667965E-1,4.266734600E0,8.942117691E-1
9.169228973E0,3.058039546E-1,4.302547932E0,8.993902206E-1
9.174051005E0,3.087079525E-1,4.332995415E0,9.226999283E-1
9.178873036E0,3.045226932E-1,4.361590862E0,9.556655884E-1
9.183695067E0,3.016885817E-1,4.401184559E0,9.956731796E-1
9.188517098E0,2.977185249E-1,4.436132908E0,1.031840324E0
9.193339182E0,3.129076362E-1,4.463899612E0,1.062825203E0
9.198161213E0,3.137872517E-1,4.493879318E0,1.111171722E0
9.202983244E0,3.026043177E-1,4.535547733E0,1.146854401E0
9.207805275E0,2.996660471E-1,4.561255455E0,1.197204590E0
9.212627307E0,3.096672893E-1,4.603090286E0,1.250054359E0
9.217449390E0,2.977156937E-1,4.620380878E0,1.302899361E0
9.222271421E0,2.757125795E-1,4.639291286E0,1.366310120E0
9.227093452E0,2.937189341E-1,4.652501106E0,1.409018517E0
9.231915484E0,2.786213160E-1,4.681509018E0,1.447672844E0
9.236737515E0,2.817096710E-1,4.697458267E0,1.490448952E0
9.241559598E0,2.800987363E-1,4.718300819E0,1.531278610E0
9.246381630E0,2.701005936E-1,4.729556561E0,1.580744743E0
9.251203661E0,2.814434767E-1,4.744290352E0,1.610010147E0
9.256025692E0,2.732504308E-1,4.756462574E0,1.642866135E0
9.260847723E0,2.693492174E-1,4.773234367E0,1.667277336E0
9.265669807E0,2.588725686E-1,4.789753914E0,1.699868202E0
9.270491838E0,2.632376850E-1,4.767700195E0,1.717802048E0
9.275313869E0,2.608364224E-1,4.791929245E0,1.730581284E0
9.280135900E0,2.586822212E-1,4.801439762E0,1.739348412E0
9.284957932E0,2.495564818E-1,4.791389942E0,1.736849785E0
9.289779963E0,2.333952188E-1,4.770177364E0,1.754142761E0
9.294602046E0,2.448016405E-1,4.756880760E0,1.757688522E0
9.299424077E0,2.383615971E-1,4.757453918E0,1.752277374E0
9.304246109E0,2.307204008E-1,4.743175507E0,1.748650551E0
9.309068140E0,2.289842963E-1,4.705707550E0,1.748018265E0
9.313890171E0,2.153174877E-1,4.698764324E0,1.756325722E0
9.318712255E0,2.195791602E-1,4.676971436E0,1.760502815E0
9.323534286E0,2.178843617E-1,4.643887043E0,1.758181572E0
9.328356317E0,2.127802968E-1,4.618559837E0,1.763719559E0
9.333178348E0,2.114289403E-1,4.586699009E0,1.768849373E0
9.338000380E0,2.043102980E-1,4.531598091E0,1.755735397E0
9.342822411E0,1.975623965E-1,4.489140987E0,1.760346413E0
9.347644494E0,1.900780499E-1,4.438956261E0,1.781535149E0
9.352466525E0,1.843577325E-1,4.384614468E0,1.778740883E0
9.357288557E0,1.793388128E-1,4.333367348E0,1.793984413E0
9.362110588E0,1.894747019E-1,4.288774014E0,1.780742645E0
9.366932619E0,1.682911217E-1,4.232991695E0,1.773884773E0
9.371754702E0,1.661888361E-1,4.161260605E0,1.760390282E0
9.376576734E0,1.665979326E-1,4.098780155E0,1.755985260E0
9.381398765E0,1.553653479E-1,4.047902107E0,1.730901718E0
9.386220796E0,1.732729077E-1,3.970545053E0,1.705711365E0
9.391042827E0,1.761571169E-1,3.924129009E0,1.666219711E0
9.395864859E0,1.655331552E-1,3.850142241E0,1.631744385E0
9.400686942E0,1.570267081E-1,3.785789490E0,1.601280212E0
9.405508973E0,1.543079317E-1,3.734795094E0,1.570239067E0
9.410331005E0,1.503791213E-1,3.651853323E0,1.529249191E0
9.415153036E0,1.620809734E-1,3.594522715E0,1.488079071E0
9.419975067E0,1.596404612E-1,3.537767649E0,1.443295479E0
9.424797150E0,1.765010953E-1,3.461534023E0,1.405879021E0
9.429619182E0,1.709397435E-1,3.390963078E0,1.359197617E0
9.434441213E0,1.668499112E-1,3.339542866E0,1.319044113E0
9.439263244E0,1.558936834E-1,3.265575886E0,1.301086426E0
9.444085327E0,1.583542228E-1,3.193177223E0,1.277957916E0
9.448907359E0,1.525849402E-1,3.122564554E0,1.240248680E0
9.453729390E0,1.493151784E-1,3.094603777E0,1.214413643E0
9.458551421E0,1.591998637E-1,2.998311758E0,1.183824539E0
9.463373452E0,1.533200443E-1,2.939193010E0,1.170110703E0
9.468195484E0,1.437577009E-1,2.868283033E0,1.131820679E0
9.473017567E0,1.337452531E-1,2.782917023E0,1.102698326E0
9.477839598E0,1.361642778E-1,2.692972898E0,1.077991486E0
9.482661630E0,1.233342886E-1,2.614197969E0,1.045855522E0
9.487483661E0,1.154127121E-1,2.522938728E0,1.022977829E0
9.492305692E0,1.025596857E-1,2.457578182E0,1.001009941E0
9.497127775E0,9.525507689E-2,2.382561445E0,9.835081100E-1
9.501949807E0,9.330350161E-2,2.282738924E0,9.597425461E-1
9.506771838E0,8.919912577E-2,2.223829508E0,9.522809982E-1
9.511593869E0,6.620877981E-2,2.149947643E0,9.419794083E-1
9.516415900E0,5.401861668E-2,2.063812017E0,9.252595901E-1
9.521237984E0,3.320747614E-2,1.987087488E0,9.210948944E-1
9.526060015E0,4.772996902E-2,1.905589104E0,9.198265076E-1
9.530882046E0,3.424340487E-2,1.836124301E0,9.189844131E-1
9.535704077E0,1.782286167E-2,1.758671403E0,9.280014038E-1
9.540526109E0,5.619764328E-3,1.689918637E0,9.419603348E-1
9.545348140E0,-5.953013897E-3,1.616897583E0,9.453287125E-1
9.550170223E0,-2.286636829E-2,1.530232668E0,9.713325500E-1
9.554992255E0,-2.364003658E-2,1.433766961E0,1.000733376E0
9.559814286E0,-2.609014511E-2,1.357216120E0,1.017995834E0
9.564636317E0,-4.192739725E-2,1.271990299E0,1.062300682E0
9.569458348E0,-6.019449234E-2,1.201882601E0,1.097759247E0
9.574280432E0,-5.217176676E-2,1.100533009E0,1.149299622E0
9.579102463E0,-5.697607994E-2,1.012092948E0,1.196549416E0
9.583924494E0,-5.408173800E-2,9.197684526E-1,1.265585899E0
9.588746525E0,-5.632317066E-2,8.627090454E-1,1.333630562E0
9.593568609E0,-5.035376549E-2,7.633591890E-1,1.399447441E0
9.598390640E0,-6.081536412E-2,6.646912098E-1,1.454704285E0
9.603212671E0,-6.234258413E-2,5.571376085E-1,1.529102325E0
9.608034702E0,-6.191778183E-2,4.453915358E-1,1.617690086E0
9.612856734E0,-7.039138675E-2,3.554872870E-1,1.697950363E0
9.617678765E0,-8.952942491E-2,2.662895024E-1,1.777400017E0
9.622500796E0,-5.807897449E-2,1.751541197E-1,1.876336098E0
9.627322880E0,-7.510247827E-2,4.962673783E-2,1.958864212E0
9.632144911E0,-7.104942203E-2,-5.663520098E-2,2.042914391E0
9.636966942E0,-7.216206193E-2,-1.774130464E-1,2.139230728E0
9.641788973E0,-7.360768318E-2,-2.746872306E-1,2.225090981E0
9.646611057E0,-6.811508536E-2,-3.976730108E-1,2.302900314E0
9.651433088E0,-7.127147913E-2,-5.047360659E-1,2.373870850E0
9.656255119E0,-7.355386019E-2,-6.380304098E-1,2.451174736E0
9.661077150E0,-6.673103571E-2,-7.379821539E-1,2.534818649E0
9.665899182E0,-8.082991838E-2,-8.754016757E-1,2.615263939E0
9.670721213E0,-8.855864406E-2,-9.978680015E-1,2.690147400E0
9.675543296E0,-9.011071920E-2,-1.120021224E0,2.747569084E0
9.680365327E0,-8.929669857E-2,-1.230118394E0,2.827019691E0
9.685187359E0,-9.837967157E-2,-1.348720908E0,2.887887001E0
9.690009390E0,-9.850913286E-2,-1.474800348E0,2.939794540E0
9.694831421E0,-9.951436520E-2,-1.593011856E0,2.985194206E0
9.699653505E0,-1.184761822E-1,-1.714324713E0,3.034898758E0
9.704475536E0,-1.174193025E-1,-1.838918686E0,3.078208923E0
9.709297567E0,-1.145336628E-1,-1.954907298E0,3.091279984E0
9.714119598E0,-1.280558705E-1,-2.073251963E0,3.118429184E0
9.718941630E0,-1.402177811E-1,-2.195299864E0,3.133426666E0
9.723763713E0,-1.429903507E-1,-2.313832283E0,3.132740021E0
9.728585744E0,-1.448585987E-1,-2.446984291E0,3.129631042E0
9.733407775E0,-1.638652682E-1,-2.548060417E0,3.111008644E0
9.738229807E0,-1.511289477E-1,-2.674640656E0,3.086555481E0
9.743051838E0,-1.510047913E-1,-2.784707069E0,3.053934097E0
9.747873921E0,-1.670172215E-1,-2.892696619E0,3.014451027E0
9.752695952E0,-1.716802716E-1,-3.011671066E0,2.980133057E0
9.757517984E0,-1.936601996E-1,-3.122440815E0,2.940298080E0
9.762340015E0,-1.670703888E-1,-3.235706329E0,2.886674881E0
9.767162046E0,-1.587489843E-1,-3.338203192E0,2.833689690E0
9.771984130E0,-1.649324894E-1,-3.441759109E0,2.774243355E0
9.776806161E0,-1.555428207E-1,-3.542730808E0,2.721574783E0
9.781628192E0,-1.470872760E-1,-3.639602423E0,2.658959389E0
9.786450223E0,-1.429044306E-1,-3.744199514E0,2.592447281E0
9.791272255E0,-1.439378560E-1,-3.833681583E0,2.518512726E0
9.796094338E0,-1.308510900E-1,-3.931756735E0,2.449138641E0
9.800916369E0,-1.212943792E-1,-3.999856710E0,2.371155739E0
9.805738400E0,-1.126885712E-1,-4.095212936E0,2.289371490E0
9.810560432E0,-9.750980139E-2,-4.158940792E0,2.208537102E0
9.815382463E0,-7.678458095E-2,-4.250604630E0,2.108306885E0
9.820204494E0,-7.418349385E-2,-4.320915699E0,2.029285431E0
9.825026577E0,-6.453508139E-2,-4.386358261E0,1.947465897E0
9.829848609E0,-4.757055640E-2,-4.461022377E0,1.843661308E0
9.834670640E0,-3.398326039E-2,-4.519539356E0,1.746475220E0
9.839492671E0,-3.325015306E-2,-4.575985432E0,1.660552025E0
9.844314702E0,-2.969506383E-2,-4.646862984E0,1.551116943E0
9.849136786E0,-1.026734710E-2,-4.688884258E0,1.467045784E0
9.853958817E0,-1.670554280E-2,-4.729294777E0,1.369903564E0
9.858780848E0,-1.313596964E-3,-4.779829979E0,1.279863358E0
9.863602880E0,1.794469357E-2,-4.807949543E0,1.183581352E0
9.868424911E0,1.116207242E-2,-4.848114491E0,1.101192474E0
