"Time (s)","Linear Acceleration x (m/s^2)","Linear Acceleration y (m/s^2)","Linear Acceleration z (m/s^2)"
3.432390700E-2,0.000000000E0,0.000000000E0,0.000000000E0
3.914578200E-2,-2.373009175E-2,1.467609406E-2,5.109310150E-3
4.396765700E-2,-3.652542084E-2,2.391910553E-2,1.834297180E-2
4.878958400E-2,-3.478160501E-2,1.697826385E-2,1.010417938E-2
5.361145900E-2,-1.095937192E-2,1.654386520E-2,-4.444122314E-4
5.843333400E-2,1.328781247E-3,2.604198456E-2,-1.404333115E-2
6.325520900E-2,1.697227359E-3,2.787160873E-2,-1.264572144E-2
6.807708400E-2,-8.377730846E-3,4.168367386E-2,-1.470804214E-2
7.289895900E-2,1.242022216E-2,1.321125031E-2,-1.245641708E-2
7.772083400E-2,3.356638551E-2,9.249687195E-3,3.245067596E-2
8.254270900E-2,4.891785979E-2,2.385139465E-3,7.133769989E-2
8.736463600E-2,4.372484982E-3,-5.031108856E-3,8.011674881E-2
9.218651100E-2,-7.859855890E-3,-1.426172256E-2,9.526586533E-2
9.700838600E-2,-1.249439269E-2,-1.970958710E-2,1.164431572E-1
1.018302610E-1,6.575837731E-3,-2.045679092E-2,1.222605705E-1
1.066521360E-1,1.212682575E-2,-2.189159393E-3,9.572267532E-2
1.114740110E-1,7.168285549E-3,1.614284515E-2,8.239984512E-2
1.162959380E-1,-9.473711252E-4,3.693199158E-2,6.109237671E-2
1.211178130E-1,1.277025789E-2,4.891538620E-2,3.780031204E-2
1.259396880E-1,2.352530509E-2,8.894729614E-2,1.928377151E-2
1.307615630E-1,3.256072849E-2,8.521556854E-2,-1.417827606E-2
1.355834380E-1,2.394294739E-2,8.763694763E-2,-2.666044235E-2
1.404053130E-1,1.794999093E-2,8.098840714E-2,-8.893013000E-3
1.452272400E-1,3.029048443E-3,7.476997375E-2,-9.081840515E-3
1.500491150E-1,7.097043097E-3,7.694149017E-2,-1.505041122E-2
1.548709900E-1,1.455017179E-2,8.611440659E-2,5.705833435E-3
1.596928650E-1,1.714059711E-2,7.667207718E-2,1.651716232E-2
1.645147400E-1,1.992285252E-5,6.084012985E-2,3.974390030E-2
1.693366150E-1,-3.613815457E-2,3.756427765E-2,6.801509857E-2
1.741584900E-1,-5.267905444E-2,9.308338165E-3,1.173796654E-1
1.789804170E-1,-3.056685627E-2,-3.082180023E-2,1.582751274E-1
1.838022920E-1,-2.072818577E-2,-4.319047928E-2,1.712827682E-1
1.886241670E-1,-4.126269370E-2,-5.645704269E-2,1.445498466E-1
1.934460420E-1,-3.199158609E-2,-5.091571808E-2,1.232743263E-1
1.982679170E-1,-3.324379027E-2,-3.755140305E-2,9.330940247E-2
2.030897920E-1,-2.269694209E-2,-3.981113434E-2,7.927656174E-2
2.079116670E-1,-1.590489596E-2,9.079933167E-3,5.976581573E-2
2.127335940E-1,-1.038818061E-2,3.434562683E-2,4.759168625E-2
2.175554690E-1,-3.537926078E-2,2.149295807E-2,4.606246948E-2
2.223773440E-1,-6.451505423E-2,3.331089020E-2,3.627347946E-2
2.271992190E-1,-5.694678426E-2,7.507848740E-2,2.661228180E-2
2.320210940E-1,-5.915670097E-2,7.605552673E-2,2.056598663E-2
2.368429690E-1,-7.550224662E-2,7.576465607E-2,1.338243484E-2
2.416648960E-1,-6.346589327E-2,8.704280853E-2,1.905870438E-2
2.464867710E-1,-5.974774063E-2,8.265542984E-2,3.022003174E-2
2.513086460E-1,-1.247300208E-2,6.881999969E-2,4.796123505E-2
2.561305210E-1,-2.079211175E-2,6.792926788E-2,2.411127090E-2
2.609523960E-1,2.174875140E-2,5.986595154E-2,2.401351929E-2
2.657742710E-1,4.954826832E-2,6.125736237E-2,2.967977524E-2
2.705961980E-1,7.693335414E-2,6.956863403E-2,3.982591629E-2
2.754180730E-1,8.137509972E-2,8.820962906E-2,6.963586807E-2
2.802399480E-1,8.569217473E-2,8.765935898E-2,8.003330231E-2
2.850618230E-1,6.414511800E-2,6.356334686E-2,6.902408600E-2
2.898836980E-1,4.075208306E-2,3.518629074E-2,5.467081070E-2
2.947055730E-1,5.203539878E-2,1.081943512E-2,2.881431580E-2
2.995274480E-1,5.404798687E-2,-1.081991196E-2,4.549503326E-3
3.043493750E-1,6.217318773E-2,-4.149723053E-2,-2.837181091E-3
3.091712500E-1,6.921507418E-2,-7.403945923E-2,-1.835250854E-2
3.139931250E-1,5.990539491E-2,-1.049175262E-1,-1.365184784E-2
3.188150000E-1,8.021125942E-2,-1.212329865E-1,-1.966047287E-2
3.236368750E-1,9.773240983E-2,-1.348886490E-1,-3.256607056E-2
3.284587500E-1,1.005786732E-1,-1.659445763E-1,-3.696632385E-2
3.332806770E-1,6.641967595E-2,-1.822977066E-1,-4.472494125E-2
3.381025520E-1,3.223305196E-2,-1.888756752E-1,-2.633285522E-2
3.429244270E-1,2.581685781E-3,-1.881346703E-1,-3.043460846E-2
3.477463020E-1,-2.127675712E-2,-1.790585518E-1,-3.081512451E-2
3.525681770E-1,-3.105804324E-2,-1.405014992E-1,-4.397773743E-2
3.573900520E-1,-5.399417877E-2,-1.165637970E-1,-2.972745895E-2
3.622119790E-1,-6.728884578E-2,-9.994029999E-2,-1.673984528E-2
3.670338540E-1,-7.215254009E-2,-8.467340469E-2,-2.037096024E-2
3.718557290E-1,-7.094283402E-2,-3.778076172E-2,3.186225891E-3
3.766776040E-1,-5.545413494E-2,-1.160383224E-2,9.902954102E-3
3.814994790E-1,-3.998513520E-2,4.253053665E-2,-1.168251038E-3
3.863213540E-1,-5.666106939E-3,5.347156525E-2,-2.977180481E-2
3.911432290E-1,2.598649263E-2,8.786678314E-2,-4.030847549E-2
3.959651570E-1,1.836717874E-2,9.584999084E-2,-4.835033417E-2
4.007870320E-1,7.419809699E-3,1.060357094E-1,-3.392744064E-2
4.056089070E-1,-3.396144509E-2,9.129714966E-2,-4.804849625E-2
4.104307820E-1,-3.450891376E-2,7.079124451E-2,-6.087541580E-2
4.152526570E-1,-1.140487194E-2,5.284595490E-2,-3.699636459E-2
4.200745320E-1,1.837790012E-3,5.602359772E-3,-1.577043533E-2
4.248964590E-1,-3.363712132E-2,1.440048218E-3,4.415225983E-2
4.297183340E-1,-5.116340518E-2,3.144359589E-2,8.782815933E-2
4.345402090E-1,-2.848798037E-2,2.779102325E-2,1.272454262E-1
4.393620840E-1,1.268219948E-2,4.516172409E-2,1.493611336E-1
4.441839590E-1,3.203074634E-2,5.152368546E-2,1.296820641E-1
4.490058340E-1,-2.190783620E-2,6.599473953E-2,8.295059204E-2
4.538277090E-1,-3.215479851E-2,7.329273224E-2,4.631280899E-2
4.586496360E-1,-2.045603096E-2,7.714033127E-2,-1.575183868E-2
4.634715110E-1,-9.674802423E-3,5.623054504E-2,-5.097198486E-2
4.682933860E-1,-1.064747572E-3,4.878473282E-2,-8.322954178E-2
4.731152610E-1,4.076783359E-2,2.380228043E-2,-1.019988060E-1
4.779371360E-1,5.257405341E-2,2.052497864E-2,-9.441232681E-2
4.827590110E-1,5.825718492E-2,1.744461060E-2,-1.033339500E-1
4.875809380E-1,5.060717463E-2,1.802968979E-2,-9.315919876E-2
4.924028130E-1,6.050267816E-2,1.038074493E-2,-9.370422363E-2
4.972246880E-1,5.449920893E-2,4.035472870E-3,-6.817436218E-2
5.020465630E-1,4.342736304E-2,-1.763725281E-2,-4.765605927E-2
5.068684380E-1,2.726547420E-2,-1.187229156E-2,-1.553440094E-2
5.116903130E-1,-1.390156150E-2,-2.510452271E-2,8.726119995E-4
5.165122400E-1,-5.142419040E-2,-9.817600250E-3,3.128814697E-2
5.213341150E-1,-6.264221668E-2,-2.433633804E-2,6.729173660E-2
5.261559900E-1,-5.715833604E-2,-4.831552505E-2,9.335517883E-2
5.309778650E-1,-5.875848234E-2,-3.667354584E-2,1.000709534E-1
5.357997400E-1,-4.231733084E-2,-3.600454330E-2,1.124706268E-1
5.406216150E-1,-4.003025591E-2,-1.304292679E-2,7.241201401E-2
5.454435420E-1,-2.579209208E-2,2.856492996E-2,3.619289398E-2
5.502654170E-1,-4.129005969E-2,6.153345108E-2,1.931905746E-2
5.550872920E-1,-3.770309687E-2,9.435844421E-2,-1.384353638E-2
5.599091670E-1,-2.595460415E-2,1.010389328E-1,-3.462839127E-2
5.647310420E-1,1.048192382E-3,1.150898933E-1,-4.544162750E-2
5.695529170E-1,2.660447359E-2,1.162180901E-1,-3.577232361E-2
5.743747920E-1,2.717868984E-2,1.150670052E-1,-2.965450287E-2
5.791967190E-1,8.979320526E-3,1.127672195E-1,-1.645517349E-2
5.840185940E-1,5.467638373E-3,7.724618912E-2,-1.526689529E-2
5.888404690E-1,2.248729765E-2,6.565427780E-2,-2.960586548E-2
5.936623440E-1,2.539572120E-2,5.048418045E-2,-3.207826614E-2
5.984842190E-1,2.014170587E-2,2.942180634E-2,-3.224706650E-2
6.033060940E-1,1.144520938E-2,4.917621613E-3,-2.180004120E-2
6.081280210E-1,-8.503496647E-4,1.145362854E-2,-1.857185364E-2
6.129498960E-1,-1.799416542E-2,-3.337383270E-3,-3.902244568E-2
6.177717710E-1,-4.354612529E-2,-4.243850708E-5,-7.100963593E-2
6.225936460E-1,-6.316821277E-2,-3.625869751E-3,-9.891319275E-2
6.274155210E-1,-7.679757476E-2,-2.074241638E-3,-1.072502136E-1
6.322373960E-1,-7.737556100E-2,-3.787040710E-3,-9.860754013E-2
6.370592710E-1,-5.195932090E-2,-5.094051361E-3,-7.660436630E-2
6.418811980E-1,-3.870144486E-2,-2.621078491E-2,-6.156253815E-2
6.467030730E-1,-1.841537654E-2,-4.692602158E-2,-3.574514389E-2
6.515249480E-1,-6.105601788E-4,-5.420541763E-2,-2.060890198E-2
6.563468230E-1,3.032878041E-3,-6.250000000E-2,7.567405701E-3
6.611686980E-1,2.117866278E-2,-5.643033981E-2,1.658964157E-2
6.659906250E-1,3.349605203E-2,-6.578540802E-2,8.982181549E-3
6.708125000E-1,3.302741051E-2,-5.490636826E-2,-1.873588562E-2
6.756343750E-1,3.282769769E-2,-3.345298767E-2,-3.792333603E-2
6.804562500E-1,6.243337691E-2,-2.879095078E-2,-4.389762878E-2
6.852781250E-1,4.201225936E-2,-4.671192169E-2,-4.982137680E-2
6.901000000E-1,2.529031038E-2,-4.546976089E-2,-3.430795670E-2
6.949219270E-1,-1.635082066E-2,-4.532194138E-2,-3.068876266E-2
6.997438020E-1,-3.875370324E-2,-4.144287109E-2,-3.997945786E-2
7.045656770E-1,-7.180114090E-2,-3.852701187E-2,-6.080579758E-2
7.093875520E-1,-5.732893944E-2,-3.655385971E-2,-7.763624191E-2
7.142094270E-1,-4.670959711E-2,-5.334377289E-2,-8.460092545E-2
7.190313020E-1,-4.109753668E-2,-5.550193787E-2,-1.078648567E-1
7.238532290E-1,-2.981394529E-2,-7.401657104E-2,-1.045999527E-1
7.286751040E-1,-2.125208080E-2,-8.035993576E-2,-8.934831619E-2
7.334969790E-1,1.139447093E-3,-7.943153381E-2,-6.700658798E-2
7.383188540E-1,1.946941018E-2,-9.152412415E-2,-4.007053375E-2
7.431407290E-1,2.539566159E-2,-7.976770401E-2,-2.665519714E-3
7.479626040E-1,1.194396615E-2,-5.034542084E-2,1.778268814E-2
7.527845320E-1,-2.182896435E-2,-4.261636734E-2,3.915119171E-2
7.576064070E-1,-4.477398098E-2,5.323886871E-3,5.316162109E-2
7.624282820E-1,-3.086948395E-2,4.691123962E-2,8.127307892E-2
7.672501570E-1,-2.656181157E-2,5.717182159E-2,9.241008759E-2
7.720720320E-1,-3.277465701E-2,6.364345551E-2,1.258602142E-1
7.768939070E-1,-5.173240602E-2,7.099294662E-2,1.611552238E-1
7.817158340E-1,-4.874938726E-2,8.984994888E-2,1.804456711E-1
7.865377090E-1,-2.760896087E-2,8.096599579E-2,1.886086464E-1
7.913595840E-1,-1.695744693E-2,6.712579727E-2,1.454100609E-1
7.961814590E-1,-5.475443602E-2,6.508207321E-2,1.273078918E-1
8.010033340E-1,-6.465332210E-2,3.441476822E-2,7.953596115E-2
8.058252090E-1,-4.456450045E-2,4.183530807E-2,5.457544327E-2
8.106471360E-1,-1.858870685E-2,5.223274231E-3,3.093910217E-2
8.154690110E-1,6.025046110E-3,5.624294281E-3,2.997159958E-2
8.202908860E-1,-1.538738608E-3,3.525257111E-3,2.414369583E-2
8.251127610E-1,-2.447250485E-2,6.055355072E-3,1.704263687E-2
8.299346360E-1,-1.990573108E-2,1.205110550E-2,-1.380109787E-2
8.347565110E-1,2.521693707E-3,2.859020233E-2,-1.836681366E-2
8.395784380E-1,2.374872565E-2,3.783178329E-2,-3.598403931E-2
8.444003130E-1,3.540864587E-2,1.249790192E-2,-3.812074661E-2
8.492221880E-1,3.987298161E-2,2.762269974E-2,-2.846622467E-2
8.540440630E-1,5.363894999E-2,8.205413818E-3,2.451419830E-3
8.588659380E-1,5.873113126E-2,1.135253906E-2,2.940511703E-2
8.636878130E-1,3.738477826E-2,2.036714554E-2,5.490159988E-2
8.685097400E-1,5.146405101E-2,2.924871445E-2,4.808568954E-2
8.733316150E-1,4.023686051E-2,6.185770035E-2,6.630802155E-2
8.781534900E-1,5.729284883E-2,8.936071396E-2,6.648635864E-2
8.829753650E-1,5.986757576E-2,1.154294014E-1,7.731914520E-2
8.877972400E-1,5.408488214E-2,1.245803833E-1,9.627532959E-2
8.926191150E-1,5.561169237E-2,1.323146820E-1,1.137342453E-1
8.974410420E-1,3.843802214E-2,1.516342163E-1,1.201581955E-1
9.022629170E-1,7.526129484E-3,1.670265198E-1,1.393790245E-1
9.070847920E-1,-1.081094146E-3,1.867580414E-1,1.047825813E-1
9.119066670E-1,1.030042768E-2,2.451477051E-1,9.389162064E-2
9.167285420E-1,-5.893334746E-3,2.669668198E-1,1.110925674E-1
9.215504170E-1,-5.519169569E-2,3.600883484E-1,2.981314659E-1
9.263723440E-1,-6.009782851E-2,3.920202255E-1,4.042406082E-1
9.311942190E-1,-6.276012957E-2,3.716197014E-1,3.862414360E-1
9.360160940E-1,-7.736101747E-2,3.005461693E-1,3.697919846E-1
9.408379690E-1,-1.450890899E-1,3.702707291E-1,3.679785728E-1
9.456598440E-1,-1.597631872E-1,5.012044907E-1,4.505867958E-1
9.504817190E-1,-9.439080954E-2,6.381659508E-1,4.732789993E-1
9.553036460E-1,-8.169871569E-2,9.865188599E-1,5.577406883E-1
9.601255210E-1,-1.645103097E-2,1.418950081E0,6.728115082E-1
9.649473960E-1,4.727731645E-2,1.669113636E0,6.831040382E-1
9.697692710E-1,-3.003412485E-2,1.930858612E0,6.276159286E-1
9.745911460E-1,-5.682379007E-2,2.124687672E0,5.414276123E-1
9.794130210E-1,-1.635289192E-2,2.263192177E0,4.000759125E-1
9.842349480E-1,8.767950535E-2,2.452358246E0,4.483981133E-1
9.890568230E-1,4.546817243E-1,2.865397692E0,1.013907909E0
9.938786980E-1,9.437882900E-1,3.120059729E0,2.244783401E0
9.987005730E-1,8.318443298E-1,3.261721611E0,2.871015549E0
1.003522448E0,5.848157406E-1,3.402893782E0,2.972589970E0
1.008344323E0,4.099552929E-1,3.502077341E0,2.722692966E0
1.013166250E0,2.372586727E-1,3.600420237E0,2.422498703E0
1.017988125E0,7.436215878E-2,3.688837290E0,2.063324928E0
1.022810000E0,-2.126747370E-2,3.729662418E0,1.730534077E0
1.027631875E0,-7.391595840E-2,3.752038956E0,1.458993435E0
1.032453750E0,-4.286032915E-2,3.725154400E0,1.404556751E0
1.037275625E0,4.010027647E-2,3.694093466E0,1.594461918E0
1.042097552E0,1.140128970E-1,3.654551029E0,2.030437469E0
1.046919427E0,2.023999691E-1,3.613883495E0,2.619876862E0
1.051741302E0,2.761419415E-1,3.549721479E0,3.245648384E0
1.056563177E0,3.175257444E-1,3.487432003E0,3.687654018E0
1.061385052E0,3.277788162E-1,3.418443680E0,3.775151253E0
1.066206979E0,3.373471498E-1,3.346378088E0,3.636176586E0
1.071028854E0,3.039561510E-1,3.270321369E0,3.451957226E0
1.075850729E0,2.749724388E-1,3.181000233E0,3.207596779E0
1.080672604E0,2.548887730E-1,3.089390278E0,2.952598572E0
1.085494479E0,2.351195812E-1,2.994660854E0,2.706591606E0
1.090316354E0,2.156103253E-1,2.921037197E0,2.447497368E0
1.095138282E0,1.893030405E-1,2.816568375E0,2.189174652E0
1.099960157E0,1.682682037E-1,2.720131874E0,1.952603340E0
1.104782032E0,1.314695477E-1,2.615671158E0,1.697940826E0
1.109603907E0,1.020999551E-1,2.493188858E0,1.467694283E0
1.114425782E0,9.505897760E-2,2.419027090E0,1.286307335E0
1.119247657E0,6.467640400E-2,2.323595524E0,1.101918221E0
1.124069584E0,3.225392103E-2,2.223459005E0,9.092979431E-1
1.128891459E0,1.328331232E-2,2.139128208E0,6.485586166E-1
1.133713334E0,6.781071424E-3,2.133136272E0,4.835557938E-1
1.138535209E0,-2.482473850E-3,2.116674662E0,2.927370071E-1
1.143357084E0,1.688158512E-2,2.079858780E0,1.288528442E-1
1.148179011E0,3.939612210E-2,3.038661480E-1,-2.778098106E0
1.153000886E0,-1.310719848E-1,1.424913406E-1,-5.616919994E0
1.157822761E0,8.744932711E-2,2.214782000E0,-7.281112671E-1
1.162644636E0,1.180843562E-1,2.458937407E0,1.994686127E-1
1.167466511E0,1.105118766E-1,2.361563206E0,6.582260132E-2
1.172288386E0,1.157730222E-1,2.297928333E0,5.354309082E-2
1.177110313E0,1.373591870E-1,2.197805882E0,1.692581177E-1
1.181932188E0,1.677960157E-1,2.093263626E0,3.610401154E-1
1.186754063E0,1.986171007E-1,1.980751634E0,7.166490555E-1
1.191575938E0,2.331158519E-1,1.861402750E0,9.898605347E-1
1.196397813E0,2.840774953E-1,1.767353773E0,1.402533531E0
1.201219688E0,3.308246434E-1,1.660291076E0,1.709775925E0
1.206041615E0,3.773459494E-1,1.540119171E0,2.031128883E0
1.210863490E0,4.155765772E-1,1.448743343E0,2.195035934E0
1.215685365E0,4.454282820E-1,1.347720504E0,2.401171684E0
1.220507240E0,4.620132148E-1,1.249228001E0,2.599501610E0
1.225329115E0,4.815714359E-1,1.154282570E0,2.768756866E0
1.230150990E0,4.904227555E-1,1.063075423E0,2.914070129E0
1.234972917E0,4.652251303E-1,9.755713940E-1,2.957117081E0
1.239794792E0,4.561797678E-1,8.739991784E-1,3.043956757E0
1.244616667E0,4.333869815E-1,7.883951068E-1,3.059086800E0
1.249438542E0,4.049956799E-1,6.997563839E-1,3.054267883E0
1.254260417E0,3.670916259E-1,6.141812801E-1,2.983302116E0
1.259082292E0,3.323075175E-1,5.390298367E-1,2.888312340E0
1.263904219E0,2.787654400E-1,4.339382648E-1,2.771871567E0
1.268726094E0,2.334913015E-1,3.480162621E-1,2.618603706E0
1.273547969E0,1.948341727E-1,2.457278967E-1,2.490613937E0
1.278369844E0,1.601096690E-1,1.570377648E-1,2.374622345E0
1.283191719E0,1.195361912E-1,8.454409242E-2,2.269289970E0
1.288013646E0,5.749392509E-2,-1.336178184E-2,2.180403709E0
1.292835521E0,2.179372311E-2,-1.006125957E-1,2.105368614E0
1.297657396E0,-5.365729332E-3,-2.021652609E-1,2.064245224E0
1.302479271E0,-5.232304335E-2,-2.939138710E-1,2.060340881E0
1.307301146E0,-1.090034842E-1,-3.876411617E-1,2.079093933E0
1.312123021E0,-1.699999571E-1,-4.759857953E-1,2.135830879E0
1.316944948E0,-2.189931571E-1,-5.743857622E-1,2.198186874E0
1.321766823E0,-2.752494514E-1,-6.587115526E-1,2.275673866E0
1.326588698E0,-3.100794852E-1,-7.324357629E-1,2.346835136E0
1.331410573E0,-3.590126634E-1,-8.288450837E-1,2.418941498E0
1.336232448E0,-4.071360528E-1,-9.059033394E-1,2.459936142E0
1.341054375E0,-4.333959222E-1,-9.779170156E-1,2.487977028E0
1.345876250E0,-4.522588849E-1,-1.054223061E0,2.493744850E0
1.350698125E0,-4.888369441E-1,-1.147748947E0,2.482246399E0
1.355520000E0,-4.890980721E-1,-1.230965137E0,2.464423180E0
1.360341875E0,-4.909654260E-1,-1.307336926E0,2.417742729E0
1.365163750E0,-4.772853255E-1,-1.380320787E0,2.362616539E0
1.369985677E0,-4.677398503E-1,-1.451053381E0,2.299054146E0
1.374807552E0,-4.521827698E-1,-1.524188399E0,2.225792885E0
1.379629427E0,-4.325339496E-1,-1.603250742E0,2.149858475E0
1.384451302E0,-4.082341194E-1,-1.684602499E0,2.060300827E0
1.389273177E0,-3.825302124E-1,-1.742016196E0,1.972389221E0
1.394095052E0,-3.599458039E-1,-1.823210239E0,1.889363289E0
1.398916979E0,-3.212513924E-1,-1.900669098E0,1.783425331E0
1.403738854E0,-2.892165780E-1,-1.974415779E0,1.710330963E0
1.408560729E0,-2.665104270E-1,-2.050359726E0,1.637406349E0
1.413382604E0,-2.403973341E-1,-2.110736847E0,1.561964035E0
1.418204479E0,-2.211534977E-1,-2.177090883E0,1.494469643E0
1.423026407E0,-2.048425078E-1,-2.262562752E0,1.433478355E0
1.427848282E0,-2.057553530E-1,-2.324130774E0,1.381178856E0
1.432670157E0,-2.059603930E-1,-2.412071943E0,1.348184586E0
1.437492032E0,-1.903234720E-1,-2.475014687E0,1.311739922E0
1.442313907E0,-1.713578105E-1,-2.548977137E0,1.293392181E0
1.447135782E0,-1.879408360E-1,-2.619518757E0,1.308631897E0
1.451957709E0,-2.109100819E-1,-2.695218325E0,1.336070061E0
1.456779584E0,-2.341374159E-1,-2.759314537E0,1.363886833E0
1.461601459E0,-2.444140911E-1,-2.835774422E0,1.419712067E0
1.466423334E0,-2.704414129E-1,-2.910329819E0,1.496507645E0
1.471245209E0,-2.955917120E-1,-2.967511177E0,1.578892708E0
1.476067136E0,-3.164765835E-1,-3.043260813E0,1.675396919E0
1.480889011E0,-3.584144711E-1,-3.110097170E0,1.776570320E0
1.485710886E0,-4.037018418E-1,-3.168193340E0,1.865859032E0
1.490532761E0,-4.370613694E-1,-3.234313488E0,1.974382401E0
1.495354636E0,-4.600100517E-1,-3.301292419E0,2.074680328E0
1.500176511E0,-5.096465945E-1,-3.372877836E0,2.125092506E0
1.504998438E0,-5.477836132E-1,-3.438334465E0,2.150787354E0
1.509820313E0,-5.910049677E-1,-3.501408815E0,2.166140556E0
1.514642188E0,-6.379737854E-1,-3.577548027E0,2.155577660E0
1.519464063E0,-6.560450792E-1,-3.651386738E0,2.108433723E0
1.524285938E0,-6.959792376E-1,-3.703881264E0,2.031911850E0
1.529107813E0,-7.365924120E-1,-3.784103870E0,1.907003403E0
1.533929740E0,-7.589952350E-1,-3.843108416E0,1.774374962E0
1.538751615E0,-7.692465782E-1,-3.910893202E0,1.632888794E0
1.543573490E0,-7.958813906E-1,-3.977902412E0,1.490930557E0
1.548395365E0,-8.040024638E-1,-4.042964458E0,1.361654282E0
1.553217240E0,-8.289707303E-1,-4.100225449E0,1.224838257E0
1.558039167E0,-8.296242952E-1,-4.155694485E0,1.108009338E0
1.562861042E0,-8.483560085E-1,-4.209411144E0,1.013583183E0
1.567682917E0,-8.474395871E-1,-4.267379284E0,9.344282150E-1
1.572504792E0,-8.642405272E-1,-4.295008659E0,8.848838806E-1
1.577326667E0,-8.692817688E-1,-4.358013153E0,8.518199921E-1
1.582148542E0,-8.842890859E-1,-4.387115955E0,8.722038269E-1
1.586970469E0,-9.107263684E-1,-4.444457531E0,8.922338486E-1
1.591792344E0,-8.974851370E-1,-4.475085735E0,9.476881027E-1
1.596614219E0,-8.924317360E-1,-4.501734734E0,9.739990234E-1
1.601436094E0,-9.100740552E-1,-4.543518066E0,1.036793709E0
1.606257969E0,-8.848377466E-1,-4.575331211E0,1.079779625E0
1.611079896E0,-8.885778785E-1,-4.606729507E0,1.118368149E0
1.615901771E0,-8.665156960E-1,-4.626943588E0,1.135674477E0
1.620723646E0,-8.500259519E-1,-4.640832424E0,1.119671822E0
1.625545521E0,-8.333494663E-1,-4.676997185E0,1.074973106E0
1.630367396E0,-8.169976473E-1,-4.711400032E0,1.002584457E0
1.635189271E0,-8.098866940E-1,-4.728587151E0,8.880901337E-1
1.640011198E0,-7.816141844E-1,-4.742882729E0,7.456989288E-1
1.644833073E0,-7.771840096E-1,-4.765016556E0,5.979728699E-1
1.649654948E0,-7.784485817E-1,-4.787731171E0,4.435577393E-1
1.654476823E0,-7.757723331E-1,-4.789497852E0,2.894926071E-1
1.659298698E0,-7.774561644E-1,-4.812173843E0,1.357250214E-1
1.664120625E0,-7.824225426E-1,-4.832920074E0,-2.380943298E-2
1.668942500E0,-7.825387716E-1,-4.844514847E0,-1.640777588E-1
1.673764375E0,-7.780380249E-1,-4.845761299E0,-2.755928040E-1
1.678586250E0,-7.788280845E-1,-4.866491795E0,-3.798551559E-1
1.683408125E0,-7.708933353E-1,-4.855268478E0,-4.458551407E-1
1.688230000E0,-7.798490524E-1,-4.853912830E0,-4.843349457E-1
1.693051927E0,-7.619182467E-1,-4.858730316E0,-4.941272736E-1
1.697873802E0,-7.677980661E-1,-4.864850044E0,-4.704670906E-1
1.702695677E0,-7.705497146E-1,-4.860255718E0,-4.169464111E-1
1.707517552E0,-7.541170716E-1,-4.822234154E0,-3.657689095E-1
1.712339427E0,-7.477568388E-1,-4.814012527E0,-2.584056854E-1
1.717161354E0,-7.616809607E-1,-4.785369873E0,-1.414308548E-1
1.721983229E0,-7.500555515E-1,-4.777962685E0,-2.320003510E-2
1.726805104E0,-7.638056874E-1,-4.748675346E0,1.106367111E-1
1.731626979E0,-7.762066126E-1,-4.718969345E0,2.374143600E-1
1.736448854E0,-7.630039454E-1,-4.685181141E0,3.344984055E-1
1.741270782E0,-7.942147851E-1,-4.669835091E0,4.162387848E-1
1.746092657E0,-7.810844183E-1,-4.644201756E0,4.564390182E-1
1.750914532E0,-7.984036207E-1,-4.618910789E0,4.849567413E-1
1.755736407E0,-8.204158545E-1,-4.607141972E0,4.684400558E-1
1.760558282E0,-8.285425901E-1,-4.576460361E0,4.187955856E-1
1.765380157E0,-8.449622393E-1,-4.544778824E0,3.563528061E-1
1.770202084E0,-8.461774588E-1,-4.520455837E0,2.500858307E-1
1.775023959E0,-8.408428431E-1,-4.528471947E0,1.334400177E-1
1.779845834E0,-8.471224904E-1,-4.491137505E0,1.353168488E-2
1.784667709E0,-8.435666561E-1,-4.477783203E0,-1.060867310E-1
1.789489584E0,-8.398436308E-1,-4.457269669E0,-2.171173096E-1
1.794311511E0,-8.324164152E-1,-4.448719978E0,-3.315191269E-1
1.799133386E0,-8.378908634E-1,-4.413831711E0,-4.099712372E-1
1.803955261E0,-8.369954228E-1,-4.378925323E0,-4.585294724E-1
1.808777136E0,-8.308843970E-1,-4.348695278E0,-4.820704460E-1
1.813599011E0,-8.300006390E-1,-4.315890789E0,-4.651718140E-1
1.818420938E0,-8.233354092E-1,-4.268612862E0,-4.412946701E-1
1.823242813E0,-8.321672678E-1,-4.232924461E0,-3.711700439E-1
1.828064688E0,-8.369110823E-1,-4.164669991E0,-2.870750427E-1
1.832886563E0,-8.383663893E-1,-4.107983589E0,-1.842784882E-1
1.837708438E0,-8.372296095E-1,-4.037650108E0,-5.212211609E-2
1.842530365E0,-8.162479401E-1,-3.966753721E0,5.681896210E-2
1.847352240E0,-8.010854721E-1,-3.908371925E0,1.760234833E-1
1.852174115E0,-7.742607594E-1,-3.843290806E0,2.779846191E-1
1.856995990E0,-7.590065002E-1,-3.773807526E0,3.627052307E-1
1.861817865E0,-7.568187118E-1,-3.730999231E0,4.374027252E-1
1.866639740E0,-7.274869680E-1,-3.685986042E0,4.661874771E-1
1.871461667E0,-7.060170174E-1,-3.637682199E0,4.850015640E-1
1.876283542E0,-6.796417832E-1,-3.590858221E0,4.890499115E-1
1.881105417E0,-6.535585523E-1,-3.563369274E0,4.603986740E-1
1.885927292E0,-6.210497618E-1,-3.508711338E0,4.003238678E-1
1.890749167E0,-5.922068954E-1,-3.478324890E0,3.363389969E-1
1.895571094E0,-5.854824781E-1,-3.444712639E0,2.636518478E-1
1.900392969E0,-5.537732244E-1,-3.400791645E0,1.942415237E-1
1.905214844E0,-5.289435387E-1,-3.372937679E0,1.281557083E-1
1.910036719E0,-5.463808775E-1,-3.352807760E0,5.350303650E-2
1.914858594E0,-5.304589272E-1,-3.296328068E0,2.648735046E-2
1.919680521E0,-5.277035236E-1,-3.264495373E0,7.720947266E-3
1.924502396E0,-5.117076635E-1,-3.215587616E0,6.893157959E-3
1.929324271E0,-4.919927120E-1,-3.150874853E0,5.513477325E-2
1.934146146E0,-4.829759598E-1,-3.106280088E0,1.382112503E-1
1.938968021E0,-4.752727747E-1,-3.041211605E0,2.502775192E-1
1.943789896E0,-4.691117406E-1,-2.983333826E0,3.939342499E-1
1.948611823E0,-4.601420760E-1,-2.926638603E0,5.394954681E-1
1.953433698E0,-4.559451938E-1,-2.854588985E0,7.159061432E-1
1.958255573E0,-4.380434453E-1,-2.781551838E0,9.102182388E-1
1.963077448E0,-4.477692246E-1,-2.716086149E0,1.111969948E0
1.967899323E0,-4.405919909E-1,-2.652198792E0,1.338090897E0
1.972721250E0,-4.317558408E-1,-2.605660200E0,1.537500381E0
1.977543125E0,-4.437789917E-1,-2.531112432E0,1.742686272E0
1.982365000E0,-4.514655471E-1,-2.450336695E0,1.941924095E0
1.987186875E0,-4.607058167E-1,-2.377831936E0,2.097190857E0
1.992008750E0,-4.440392554E-1,-2.301849604E0,2.246906281E0
1.996830677E0,-4.575655460E-1,-2.233263016E0,2.372045517E0
2.001652552E0,-4.592279196E-1,-2.154388428E0,2.446447372E0
2.006474427E0,-4.608464241E-1,-2.090520620E0,2.509613991E0
2.011296302E0,-4.573257565E-1,-2.014359236E0,2.543627739E0
2.016118177E0,-4.422766864E-1,-1.930867553E0,2.558041573E0
2.020940104E0,-4.343236685E-1,-1.843919158E0,2.538520813E0
2.025761979E0,-4.160188437E-1,-1.768013954E0,2.518479347E0
2.030583854E0,-3.817273974E-1,-1.673455000E0,2.481128693E0
2.035405729E0,-3.615876734E-1,-1.585506916E0,2.455080986E0
2.040227604E0,-3.435502946E-1,-1.500784636E0,2.418767929E0
2.045049479E0,-3.240378201E-1,-1.396716833E0,2.430649757E0
2.049871407E0,-3.027390242E-1,-1.298665643E0,2.451201439E0
2.054693282E0,-2.757464945E-1,-1.193571687E0,2.488728523E0
2.059515157E0,-2.533528507E-1,-1.097118616E0,2.551541328E0
2.064337032E0,-2.349148989E-1,-9.962629080E-1,2.635993958E0
2.069158907E0,-2.017333657E-1,-8.996175528E-1,2.734880447E0
2.073980834E0,-1.494495273E-1,-8.096050024E-1,2.857705116E0
2.078802709E0,-1.308979988E-1,-7.024412751E-1,2.979334831E0
2.083624584E0,-1.043303981E-1,-6.117728949E-1,3.092583656E0
2.088446459E0,-7.579709589E-2,-5.005865097E-1,3.198617935E0
2.093268334E0,-3.103891015E-2,-3.964241147E-1,3.286640167E0
2.098090261E0,3.659039736E-3,-3.041698039E-1,3.358992577E0
2.102912136E0,5.351540446E-2,-1.940405071E-1,3.410817146E0
2.107734011E0,8.855271339E-2,-8.995747566E-2,3.433677673E0
2.112555886E0,1.336824596E-1,9.350687265E-3,3.420345306E0
2.117377761E0,1.805173159E-1,1.121524572E-1,3.375518799E0
2.122199636E0,2.226889729E-1,2.041807771E-1,3.309874535E0
2.127021563E0,2.395101488E-1,3.153068423E-1,3.229293823E0
2.131843438E0,2.674013674E-1,4.121609926E-1,3.109827042E0
2.136665313E0,2.793044448E-1,5.258327127E-1,2.963410378E0
2.141487188E0,2.933622301E-1,6.504872441E-1,2.836612701E0
2.146309115E0,3.156946898E-1,7.311707735E-1,2.704284668E0
2.151130990E0,3.389106989E-1,8.469523787E-1,2.555718422E0
2.155952865E0,3.330025375E-1,9.512829781E-1,2.427987099E0
2.160774740E0,3.393523693E-1,1.051470041E0,2.325889587E0
2.165596615E0,3.514975607E-1,1.157173872E0,2.254220009E0
2.170418490E0,3.460770249E-1,1.258877635E0,2.204645157E0
2.175240417E0,3.473801017E-1,1.363973379E0,2.209459305E0
2.180062292E0,3.558474183E-1,1.471363425E0,2.218502998E0
2.184884167E0,3.406026065E-1,1.558452964E0,2.265275955E0
2.189706042E0,3.472576141E-1,1.662440300E0,2.339029312E0
2.194527917E0,3.484093547E-1,1.758323908E0,2.421843529E0
2.199349844E0,3.381133080E-1,1.868964434E0,2.522084236E0
2.204171719E0,3.416145146E-1,1.947886467E0,2.583596230E0
2.208993594E0,3.517194986E-1,2.053712130E0,2.663719177E0
2.213815469E0,3.326901197E-1,2.169826031E0,2.719374657E0
2.218637344E0,3.086401820E-1,2.256978750E0,2.726664543E0
2.223459271E0,3.227159977E-1,2.343965530E0,2.713037491E0
2.228281146E0,3.144705296E-1,2.435668707E0,2.667690277E0
2.233103021E0,3.117064238E-1,2.509542227E0,2.565508842E0
2.237924896E0,3.175538182E-1,2.599070549E0,2.437539101E0
2.242746771E0,3.232939839E-1,2.680489540E0,2.275414467E0
2.247568698E0,3.310458660E-1,2.769409895E0,2.094657898E0
2.252390573E0,3.515030742E-1,2.833636284E0,1.910790443E0
2.257212448E0,3.692116737E-1,2.901925802E0,1.707096100E0
2.262034323E0,3.867377043E-1,2.993372917E0,1.519435883E0
2.266856198E0,4.020601213E-1,3.061475992E0,1.365744591E0
2.271678125E0,4.263020754E-1,3.124213696E0,1.214971542E0
2.276500000E0,4.193676710E-1,3.191109419E0,1.099407196E0
2.281321875E0,4.522626698E-1,3.257384777E0,1.016676903E0
2.286143750E0,4.586954415E-1,3.311175346E0,9.405698776E-1
2.290965625E0,4.788086116E-1,3.372719288E0,9.105510712E-1
2.295787552E0,4.774405658E-1,3.422892570E0,9.122991562E-1
2.300609427E0,5.008006096E-1,3.520265579E0,9.351243973E-1
2.305431302E0,5.186242461E-1,3.576258183E0,9.802284241E-1
2.310253177E0,5.388690233E-1,3.638775826E0,1.029762268E0
2.315075052E0,5.611456633E-1,3.683877468E0,1.087357521E0
2.319896979E0,5.792005062E-1,3.737761259E0,1.125561714E0
2.324718854E0,5.866787434E-1,3.789665461E0,1.163560867E0
2.329540729E0,6.178104281E-1,3.823944330E0,1.183428764E0
2.334362604E0,6.196060181E-1,3.877529383E0,1.178008080E0
2.339184479E0,6.464852095E-1,3.910901070E0,1.140156746E0
2.344006407E0,6.643519402E-1,3.940755844E0,1.093785286E0
2.348828282E0,6.712405086E-1,3.989628077E0,1.020919800E0
2.353650157E0,6.795080304E-1,4.033485889E0,9.155778885E-1
2.358472032E0,6.955124736E-1,4.060309410E0,8.195581436E-1
2.363293907E0,6.881780028E-1,4.105799675E0,7.184238434E-1
2.368115834E0,6.779072881E-1,4.132850170E0,6.049852371E-1
2.372937709E0,6.766725779E-1,4.158062458E0,4.982929230E-1
2.377759584E0,6.902355552E-1,4.204005718E0,4.149847031E-1
2.382581459E0,6.873198152E-1,4.216804981E0,3.513813019E-1
2.387403334E0,6.796824336E-1,4.256096363E0,3.169326782E-1
2.392225261E0,6.716852188E-1,4.273993969E0,2.924442291E-1
2.397047136E0,6.630386114E-1,4.299033165E0,2.981128693E-1
2.401869011E0,6.580317616E-1,4.340682507E0,3.326463699E-1
2.406690886E0,6.669522524E-1,4.384424210E0,4.042577744E-1
2.411512761E0,6.558559537E-1,4.402705193E0,4.972877502E-1
2.416334688E0,6.505125761E-1,4.413332462E0,6.032342911E-1
2.421156563E0,6.515716314E-1,4.444928646E0,7.542409897E-1
2.425978438E0,6.571714282E-1,4.459100246E0,8.880023956E-1
2.430800313E0,6.476760507E-1,4.466470242E0,1.046191216E0
2.435622188E0,6.594984531E-1,4.502765656E0,1.216680527E0
2.440444115E0,6.394882202E-1,4.527226925E0,1.355112076E0
2.445265990E0,6.324484944E-1,4.537363529E0,1.495997429E0
2.450087865E0,6.282290816E-1,4.542675495E0,1.592596054E0
2.454909740E0,6.119931340E-1,4.552588463E0,1.679417610E0
2.459731615E0,6.082547307E-1,4.567016602E0,1.732421875E0
2.464553542E0,6.058880091E-1,4.585909367E0,1.755105972E0
2.469375417E0,6.056685448E-1,4.598433495E0,1.750937462E0
2.474197292E0,5.930206776E-1,4.618834019E0,1.713827133E0
2.479019167E0,5.868660212E-1,4.632750511E0,1.674773216E0
2.483841042E0,5.988928080E-1,4.627081871E0,1.595488548E0
2.488662969E0,5.919234157E-1,4.654291630E0,1.532020569E0
2.493484844E0,5.672019720E-1,4.666560173E0,1.463994026E0
2.498306719E0,5.700975060E-1,4.653158188E0,1.402112007E0
2.503128594E0,5.767192245E-1,4.658287048E0,1.342737198E0
2.507950469E0,5.693153143E-1,4.651992321E0,1.292991638E0
2.512772396E0,5.647160411E-1,4.641446590E0,1.267179489E0
2.517594271E0,5.487172604E-1,4.632620811E0,1.256913185E0
2.522416146E0,5.454338789E-1,4.611118793E0,1.266938210E0
2.527238021E0,5.383422971E-1,4.595992088E0,1.290051460E0
2.532059896E0,5.146313906E-1,4.595561981E0,1.350162506E0
2.536881823E0,5.103974342E-1,4.548852921E0,1.413802147E0
2.541703698E0,4.961065948E-1,4.498859406E0,1.486964226E0
2.546525573E0,4.924371839E-1,4.472960472E0,1.586373329E0
2.551347448E0,4.926227629E-1,4.438841820E0,1.695340157E0
2.556169323E0,4.755981863E-1,4.395174980E0,1.793543816E0
2.560991250E0,4.717261791E-1,4.349146366E0,1.879912376E0
2.565813125E0,4.647759497E-1,4.293514252E0,1.962866783E0
2.570635000E0,4.707955122E-1,4.248511791E0,2.007820129E0
2.575456875E0,4.592801630E-1,4.198639393E0,2.031681061E0
2.580278750E0,4.725963771E-1,4.137856483E0,2.033325195E0
2.585100677E0,4.634109735E-1,4.088880539E0,1.998542786E0
2.589922552E0,4.550595880E-1,4.043331146E0,1.964491844E0
2.594744427E0,4.754421413E-1,3.997636080E0,1.888256073E0
2.599566302E0,4.676133394E-1,3.945913792E0,1.793910027E0
2.604388177E0,4.762237668E-1,3.898951054E0,1.703058243E0
2.609210104E0,4.730008245E-1,3.836402178E0,1.588267326E0
2.614031979E0,4.737185538E-1,3.789525747E0,1.481984138E0
2.618853854E0,4.702756703E-1,3.746367931E0,1.379491806E0
2.623675729E0,4.665384889E-1,3.675890446E0,1.311911583E0
2.628497657E0,4.864818752E-1,3.616518021E0,1.250675201E0
2.633319532E0,4.692371488E-1,3.560995579E0,1.199404716E0
2.638141407E0,4.757743180E-1,3.484414577E0,1.177366257E0
2.642963282E0,4.630151391E-1,3.409578323E0,1.194192886E0
2.647785157E0,4.751166105E-1,3.342506647E0,1.223669052E0
2.652607084E0,4.771681428E-1,3.268957853E0,1.270703316E0
2.657428959E0,4.689984024E-1,3.197293997E0,1.334178925E0
2.662250834E0,4.656802416E-1,3.116898775E0,1.408268929E0
2.667072709E0,4.549764991E-1,3.035063505E0,1.489528656E0
2.671894584E0,4.650544524E-1,2.971066952E0,1.591259003E0
2.676716459E0,4.451540112E-1,2.898694515E0,1.686088562E0
2.681538386E0,4.448903203E-1,2.816870689E0,1.747884750E0
2.686360261E0,4.205837548E-1,2.738929272E0,1.815068245E0
2.691182136E0,4.049351811E-1,2.679373741E0,1.874611855E0
2.696004011E0,3.901233077E-1,2.600070953E0,1.901535988E0
2.700825938E0,3.681804538E-1,2.526419163E0,1.916321754E0
2.705647813E0,3.360161781E-1,2.453757286E0,1.909485817E0
2.710469688E0,3.096323609E-1,2.377556324E0,1.890695572E0
2.715291563E0,2.872017026E-1,2.320658207E0,1.862383842E0
2.720113490E0,2.645322084E-1,2.249844551E0,1.789983749E0
2.724935365E0,2.351385951E-1,2.177251101E0,1.720168114E0
2.729757240E0,2.021355778E-1,2.093635798E0,1.641036034E0
2.734579115E0,1.627983153E-1,2.009737492E0,1.554268837E0
2.739400990E0,1.432420909E-1,1.920469761E0,1.474459648E0
2.744222917E0,1.264554560E-1,1.828377843E0,1.405109406E0
2.749044792E0,1.076081097E-1,1.751581311E0,1.320068359E0
2.753866667E0,6.888476014E-2,1.677045703E0,1.271683693E0
2.758688542E0,5.678677559E-2,1.569343090E0,1.244248390E0
2.763510417E0,3.106981516E-2,1.504880905E0,1.216269493E0
2.768332344E0,1.458919048E-2,1.399216771E0,1.210318565E0
2.773154219E0,-8.916363120E-3,1.325251579E0,1.225050926E0
2.777976094E0,-2.465550601E-2,1.253197908E0,1.237775803E0
2.782797969E0,-3.475604951E-2,1.198226213E0,1.267560959E0
2.787619896E0,-4.555694759E-2,1.125930548E0,1.331160545E0
2.792441771E0,-5.987045169E-2,1.060377240E0,1.378351212E0
2.797263646E0,-5.658059567E-2,9.849812984E-1,1.416310310E0
2.802085521E0,-5.157961696E-2,9.116593599E-1,1.472467422E0
2.806907396E0,-4.406750202E-2,8.477484584E-1,1.516877174E0
2.811729271E0,-4.152931273E-2,7.610565424E-1,1.560224533E0
2.816551198E0,-3.224031627E-2,6.802410483E-1,1.582098007E0
2.821373073E0,-1.542291045E-2,6.150044203E-1,1.611079216E0
2.826194948E0,4.994779825E-3,5.246185064E-1,1.624326706E0
2.831016823E0,2.371886373E-2,4.473721683E-1,1.628894806E0
2.835838750E0,1.153144240E-2,3.688883185E-1,1.616294861E0
2.840660625E0,4.187607765E-2,2.854934931E-1,1.604335785E0
2.845482500E0,4.702848196E-2,2.055359483E-1,1.589303970E0
2.850304375E0,5.003446341E-2,1.110433340E-1,1.575873375E0
2.855126250E0,7.026687264E-2,1.846611500E-3,1.565141678E0
2.859948177E0,8.266669512E-2,-8.982974291E-2,1.559422493E0
2.864770052E0,7.050043344E-2,-1.880023479E-1,1.558660507E0
2.869591927E0,6.705117226E-2,-2.689076662E-1,1.561630249E0
2.874413802E0,7.563409209E-2,-3.851653337E-1,1.599372864E0
2.879235677E0,6.590545177E-2,-4.819846749E-1,1.632443428E0
2.884057604E0,6.848585606E-2,-5.762586594E-1,1.701494217E0
2.888879479E0,5.171230435E-2,-6.633550525E-1,1.792181969E0
2.893701354E0,4.841667414E-2,-7.613118887E-1,1.891387939E0
2.898523229E0,2.564567327E-2,-8.595758677E-1,2.018271446E0
2.903345104E0,1.359274983E-2,-9.725214839E-1,2.123868942E0
2.908167032E0,-1.743942499E-3,-1.069300175E0,2.251285553E0
2.912988907E0,-1.160237193E-2,-1.171639204E0,2.387400627E0
2.917810782E0,-4.086233675E-2,-1.286710620E0,2.511919975E0
2.922632657E0,-4.494622350E-2,-1.368201971E0,2.615360260E0
2.927454584E0,-7.368437946E-2,-1.478367925E0,2.709712982E0
2.932276459E0,-9.921306372E-2,-1.586251259E0,2.790231705E0
2.937098334E0,-1.090840548E-1,-1.690837026E0,2.830674171E0
2.941920209E0,-1.445966363E-1,-1.786261797E0,2.866941452E0
2.946742084E0,-1.572505832E-1,-1.906188846E0,2.871588707E0
2.951564011E0,-1.822112799E-1,-1.999289870E0,2.857809067E0
2.956385886E0,-1.922944188E-1,-2.117113113E0,2.802958488E0
2.961207761E0,-2.127729207E-1,-2.238117218E0,2.723832130E0
2.966029636E0,-2.340926677E-1,-2.315883875E0,2.657550812E0
2.970851563E0,-2.299748361E-1,-2.413830280E0,2.568295479E0
2.975673438E0,-2.324681431E-1,-2.510517120E0,2.482443810E0
2.980495313E0,-2.652334571E-1,-2.625066757E0,2.404821396E0
2.985317188E0,-2.597949803E-1,-2.724040270E0,2.328314781E0
2.990139063E0,-2.623835504E-1,-2.815858603E0,2.267330170E0
2.994960990E0,-2.712324560E-1,-2.900581360E0,2.215948105E0
2.999782865E0,-2.774104476E-1,-3.014040709E0,2.175410271E0
3.004604740E0,-2.671147883E-1,-3.103579760E0,2.164861679E0
3.009426615E0,-2.600511014E-1,-3.191989422E0,2.153268814E0
3.014248490E0,-2.650623322E-1,-3.278005600E0,2.157384872E0
3.019070417E0,-2.646470666E-1,-3.366409779E0,2.149745941E0
3.023892292E0,-2.556769252E-1,-3.451206923E0,2.155477524E0
3.028714167E0,-2.350766063E-1,-3.529894829E0,2.161394119E0
3.033536042E0,-2.260939777E-1,-3.627481937E0,2.138799667E0
3.038357969E0,-2.112532258E-1,-3.692524910E0,2.100856781E0
3.043179844E0,-1.959055066E-1,-3.754818916E0,2.055888176E0
3.048001719E0,-1.830703616E-1,-3.819081545E0,1.966833115E0
3.052823594E0,-1.781644225E-1,-3.894747734E0,1.889828682E0
3.057645469E0,-1.617515087E-1,-3.955299377E0,1.794891357E0
3.062467396E0,-1.537980139E-1,-4.011392117E0,1.654502869E0
3.067289271E0,-1.302178502E-1,-4.082040787E0,1.537961960E0
3.072111146E0,-1.243473291E-1,-4.156308174E0,1.391399384E0
3.076933021E0,-1.158638299E-1,-4.210071087E0,1.249412537E0
3.081754896E0,-1.035263240E-1,-4.262400150E0,1.121513367E0
3.086576823E0,-1.102898717E-1,-4.304815292E0,1.005266190E0
3.091398698E0,-9.807500243E-2,-4.359771252E0,8.766593933E-1
3.096220573E0,-8.626192808E-2,-4.394877911E0,7.834663391E-1
3.101042448E0,-9.196153283E-2,-4.436315060E0,6.909618378E-1
3.105864375E0,-8.559516072E-2,-4.483901501E0,6.373090744E-1
3.110686250E0,-7.121497393E-2,-4.525516510E0,5.758094788E-1
3.115508125E0,-6.839591265E-2,-4.568179131E0,5.518074036E-1
3.120330000E0,-7.040682435E-2,-4.579474926E0,5.377016068E-1
3.125151875E0,-5.507802963E-2,-4.609462261E0,5.369815826E-1
3.129973802E0,-6.365209818E-2,-4.648445606E0,5.447874069E-1
3.134795677E0,-6.434728205E-2,-4.672311306E0,5.538043976E-1
3.139617552E0,-7.791978121E-2,-4.690644741E0,5.699739456E-1
3.144439427E0,-7.029758394E-2,-4.709178448E0,5.871286392E-1
3.149261354E0,-6.115341187E-2,-4.725405693E0,5.967788696E-1
3.154083229E0,-7.479447126E-2,-4.729622841E0,5.880222321E-1
3.158905104E0,-8.428221941E-2,-4.745668411E0,5.631561279E-1
3.163726979E0,-8.877324313E-2,-4.751916885E0,5.232400894E-1
3.168548854E0,-9.458169341E-2,-4.757822514E0,4.836568832E-1
3.173370782E0,-9.125442803E-2,-4.764507294E0,4.179744720E-1
3.178192657E0,-1.066137329E-1,-4.794591427E0,3.439970016E-1
3.183014532E0,-1.000932977E-1,-4.795406342E0,2.568063736E-1
3.187836407E0,-1.101089269E-1,-4.811137199E0,1.634483337E-1
3.192658334E0,-1.093309075E-1,-4.831014156E0,7.697772980E-2
3.197480209E0,-1.215926781E-1,-4.845389366E0,-7.545471191E-3
3.202302084E0,-1.098929644E-1,-4.848289490E0,-1.057472229E-1
3.207123959E0,-1.064292639E-1,-4.850447655E0,-1.914243698E-1
3.211945834E0,-1.170568764E-1,-4.863812447E0,-2.598886490E-1
3.216767761E0,-1.225070134E-1,-4.872799397E0,-3.303689957E-1
3.221589636E0,-1.083144397E-1,-4.874988079E0,-3.826317787E-1
3.226411511E0,-1.017217636E-1,-4.869236946E0,-4.238905907E-1
3.231233386E0,-1.013962999E-1,-4.873375893E0,-4.542722702E-1
3.236055313E0,-9.030546248E-2,-4.850372791E0,-4.762048721E-1
3.240877188E0,-8.852787316E-2,-4.844433784E0,-4.682502747E-1
3.245699063E0,-9.096943587E-2,-4.835175514E0,-4.747118950E-1
3.250520938E0,-9.249003232E-2,-4.830949783E0,-4.561753273E-1
3.255342813E0,-9.043555707E-2,-4.786355019E0,-4.162707329E-1
3.260164740E0,-8.089416474E-2,-4.779022217E0,-3.897466660E-1
3.264986615E0,-6.585194916E-2,-4.752732754E0,-3.742117882E-1
3.269808490E0,-5.459680408E-2,-4.731375694E0,-3.469786644E-1
3.274630365E0,-4.675730318E-2,-4.724572182E0,-3.295130730E-1
3.279452292E0,-4.066868126E-2,-4.705899715E0,-3.063592911E-1
3.284274167E0,-8.491292596E-3,-4.677838326E0,-3.049440384E-1
3.289096042E0,-1.214754581E-2,-4.658251762E0,-3.133268356E-1
3.293917917E0,-9.677559137E-4,-4.656766891E0,-3.266439438E-1
3.298739844E0,2.886435390E-2,-4.653048992E0,-3.460593224E-1
3.303561719E0,3.583475947E-2,-4.632783890E0,-3.846683502E-1
3.308383594E0,2.855512500E-2,-4.617519855E0,-4.041686058E-1
3.313205469E0,4.314056039E-2,-4.631210327E0,-4.510869980E-1
3.318027344E0,5.224949121E-2,-4.604577065E0,-4.822926521E-1
3.322849271E0,5.849230289E-2,-4.616590500E0,-5.036826134E-1
3.327671146E0,8.340141177E-2,-4.597930908E0,-5.223522186E-1
3.332493021E0,8.168977499E-2,-4.577388287E0,-5.453538895E-1
3.337314896E0,7.734423876E-2,-4.555002689E0,-5.271778107E-1
3.342136823E0,9.186738729E-2,-4.543916702E0,-5.167779922E-1
3.346958698E0,9.888991714E-2,-4.527497292E0,-4.805250168E-1
3.351780573E0,9.356576204E-2,-4.506993294E0,-4.159321785E-1
3.356602448E0,9.852018952E-2,-4.469246864E0,-3.552083969E-1
3.361424323E0,1.088073105E-1,-4.441891670E0,-2.599210739E-1
3.366246250E0,1.205535531E-1,-4.397447586E0,-1.586723328E-1
3.371068125E0,1.204036325E-1,-4.358653069E0,-6.210041046E-2
3.375890000E0,1.355467886E-1,-4.318480492E0,5.868053436E-2
3.380711875E0,1.428410411E-1,-4.285300255E0,1.798477173E-1
3.385533802E0,1.181417853E-1,-4.240142345E0,2.920389175E-1
3.390355677E0,1.267455220E-1,-4.224874496E0,4.204711914E-1
3.395177552E0,1.251877844E-1,-4.197788715E0,5.270586014E-1
3.399999427E0,1.272438318E-1,-4.136267185E0,6.334466934E-1
3.404821354E0,1.121849418E-1,-4.091876507E0,7.087144852E-1
3.409643229E0,1.105333343E-1,-4.062316895E0,7.876586914E-1
3.414465104E0,1.074825823E-1,-4.027423859E0,8.632335663E-1
3.419286979E0,1.096888185E-1,-3.976585388E0,9.152212143E-1
3.424108854E0,1.035927385E-1,-3.907520056E0,9.711942673E-1
3.428930782E0,9.589481354E-2,-3.855146170E0,1.014543533E0
3.433752657E0,1.005962938E-1,-3.814740896E0,1.027401924E0
3.438574532E0,9.464265406E-2,-3.761415958E0,1.075617790E0
3.443396407E0,8.965632319E-2,-3.701259851E0,1.126916885E0
3.448218334E0,1.081102788E-1,-3.640464544E0,1.151505470E0
3.453040209E0,1.019955575E-1,-3.561218262E0,1.204413414E0
3.457862084E0,1.011183560E-1,-3.515108109E0,1.249830246E0
3.462683959E0,9.460599720E-2,-3.444902420E0,1.304546356E0
3.467505834E0,8.971819282E-2,-3.381810427E0,1.373374939E0
3.472327761E0,9.600222111E-2,-3.310500383E0,1.462341309E0
3.477149636E0,9.690181911E-2,-3.251394510E0,1.541587830E0
3.481971511E0,9.979026020E-2,-3.157981873E0,1.636260033E0
3.486793386E0,1.050638855E-1,-3.084256649E0,1.736848831E0
3.491615313E0,1.212728769E-1,-3.018347502E0,1.819480896E0
3.496437188E0,1.237377152E-1,-2.935369730E0,1.927262306E0
3.501259063E0,1.225449741E-1,-2.859302759E0,2.031497955E0
3.506080938E0,1.242563948E-1,-2.758009434E0,2.108325005E0
3.510902865E0,1.293141395E-1,-2.675819874E0,2.197210312E0
3.515724740E0,1.407957077E-1,-2.590083361E0,2.255118370E0
3.520546615E0,1.390284598E-1,-2.514063358E0,2.320313454E0
3.525368490E0,1.544667482E-1,-2.426314831E0,2.364078522E0
3.530190417E0,1.662232727E-1,-2.328064680E0,2.382805824E0
3.535012292E0,1.666409522E-1,-2.245686769E0,2.401564598E0
3.539834167E0,1.729511470E-1,-2.148081064E0,2.390411377E0
3.544656042E0,1.726059318E-1,-2.075903893E0,2.393517494E0
3.549477917E0,1.696300507E-1,-1.973051310E0,2.373761177E0
3.554299844E0,1.859392524E-1,-1.870510817E0,2.365725517E0
3.559121719E0,1.967279166E-1,-1.767070770E0,2.332279205E0
3.563943594E0,1.963205636E-1,-1.679524899E0,2.318801880E0
3.568765469E0,2.004545331E-1,-1.577874660E0,2.294129372E0
3.573587396E0,2.043930888E-1,-1.472812653E0,2.273750305E0
3.578409271E0,2.080785930E-1,-1.366638660E0,2.268362999E0
3.583231146E0,1.768226027E-1,-1.280822515E0,2.267164230E0
3.588053021E0,1.784918308E-1,-1.171001673E0,2.279679298E0
3.592874948E0,1.674319357E-1,-1.062243462E0,2.297517776E0
3.597696823E0,1.671298891E-1,-9.627404809E-1,2.329019547E0
3.602518698E0,1.616200805E-1,-8.533347845E-1,2.341917992E0
3.607340573E0,1.431362033E-1,-7.446501851E-1,2.384029388E0
3.612162448E0,1.206839532E-1,-6.448608637E-1,2.419469833E0
3.616984375E0,9.497238696E-2,-5.191617012E-1,2.473340988E0
3.621806250E0,8.909893781E-2,-4.056786299E-1,2.515754700E0
3.626628125E0,7.011486590E-2,-3.115066588E-1,2.531196594E0
3.631450000E0,5.408958346E-2,-2.005743831E-1,2.548371315E0
3.636271927E0,3.671767935E-2,-8.588960767E-2,2.554122925E0
3.641093802E0,1.494739763E-2,1.480510831E-2,2.535313606E0
3.645915677E0,-1.300139911E-2,1.267030686E-1,2.521839142E0
3.650737552E0,-2.027389407E-2,2.320225388E-1,2.490976334E0
3.655559479E0,-3.125181422E-2,3.214133978E-1,2.447523117E0
3.660381354E0,-6.071235240E-2,4.522984922E-1,2.402246475E0
3.665203229E0,-7.321459055E-2,5.448267460E-1,2.324090958E0
3.670025104E0,-9.636647254E-2,6.396937370E-1,2.244185448E0
3.674847032E0,-9.929582477E-2,7.370362282E-1,2.150609970E0
3.679668907E0,-1.035486460E-1,8.393025398E-1,2.074485779E0
3.684490782E0,-1.174564511E-1,9.417868853E-1,1.975215912E0
3.689312657E0,-1.217244565E-1,1.049405217E0,1.891129494E0
3.694134532E0,-1.329428852E-1,1.143067598E0,1.801963806E0
3.698956459E0,-1.399309486E-1,1.228815436E0,1.726915359E0
3.703778334E0,-1.399975568E-1,1.327032447E0,1.680387497E0
3.708600209E0,-1.397882998E-1,1.403085113E0,1.633748055E0
3.713422084E0,-1.472473294E-1,1.490431786E0,1.590654373E0
3.718244011E0,-1.534167528E-1,1.581979990E0,1.570307732E0
3.723065886E0,-1.564941406E-1,1.674094439E0,1.559595108E0
3.727887761E0,-1.618361622E-1,1.759638667E0,1.547819138E0
3.732709636E0,-1.508998871E-1,1.813411117E0,1.545767784E0
3.737531563E0,-1.493344009E-1,1.909547329E0,1.533162117E0
3.742353438E0,-1.540936828E-1,1.985712051E0,1.523167610E0
3.747175313E0,-1.370516717E-1,2.059821367E0,1.508623123E0
3.751997188E0,-1.430732310E-1,2.128264189E0,1.495518684E0
3.756819115E0,-1.345348358E-1,2.194467306E0,1.475460052E0
3.761640990E0,-1.396315396E-1,2.278579473E0,1.452008247E0
3.766462865E0,-1.579294503E-1,2.335123777E0,1.429929733E0
3.771284740E0,-1.521348357E-1,2.397400141E0,1.384094238E0
3.776106667E0,-1.601961255E-1,2.460532904E0,1.337205887E0
3.780928542E0,-1.688281894E-1,2.506371021E0,1.292804718E0
3.785750417E0,-1.790586114E-1,2.575431824E0,1.254436493E0
3.790572292E0,-1.933323145E-1,2.636442900E0,1.226846695E0
3.795394167E0,-2.057342231E-1,2.703574419E0,1.195647240E0
3.800216094E0,-2.128772140E-1,2.768204212E0,1.188278198E0
3.805037969E0,-2.388091683E-1,2.820716858E0,1.177226067E0
3.809859844E0,-2.480020523E-1,2.881182909E0,1.187546730E0
3.814681719E0,-2.670415640E-1,2.930324793E0,1.202456474E0
3.819503646E0,-2.723757625E-1,2.998993635E0,1.246994972E0
3.824325521E0,-2.800650001E-1,3.041676044E0,1.307979584E0
3.829147396E0,-3.132431805E-1,3.109579325E0,1.361438751E0
3.833969271E0,-3.233381510E-1,3.155799627E0,1.424020767E0
3.838791198E0,-3.467414081E-1,3.235259533E0,1.492112160E0
3.843613073E0,-3.576043546E-1,3.301090240E0,1.567998886E0
3.848434948E0,-3.791870177E-1,3.347171307E0,1.632471085E0
3.853256823E0,-3.749230504E-1,3.417541742E0,1.696191788E0
3.858078750E0,-3.943239748E-1,3.464263678E0,1.753103256E0
3.862900625E0,-4.043382406E-1,3.509943485E0,1.806695938E0
3.867722500E0,-4.113086164E-1,3.572321892E0,1.853251457E0
3.872544375E0,-4.216001034E-1,3.632112741E0,1.879498482E0
3.877366302E0,-4.461939633E-1,3.686844826E0,1.885352135E0
3.882188177E0,-4.602977633E-1,3.747152805E0,1.894596100E0
3.887010052E0,-4.701247215E-1,3.805803299E0,1.880834579E0
3.891831927E0,-4.721998274E-1,3.871006489E0,1.859466553E0
3.896653854E0,-4.809877276E-1,3.904439449E0,1.814845085E0
3.901475729E0,-4.809298217E-1,3.961030006E0,1.785108566E0
3.906297604E0,-4.828265905E-1,4.029997826E0,1.737898827E0
3.911119479E0,-4.913948178E-1,4.059884071E0,1.701800346E0
3.915941407E0,-4.957459867E-1,4.109227180E0,1.659959793E0
3.920763282E0,-4.969532490E-1,4.164759636E0,1.627783775E0
3.925585157E0,-5.103576779E-1,4.196644306E0,1.608797073E0
3.930407032E0,-5.178393126E-1,4.251453400E0,1.596902847E0
3.935228959E0,-5.144098401E-1,4.306449413E0,1.575290680E0
3.940050834E0,-5.223960876E-1,4.323296547E0,1.564149857E0
3.944872709E0,-5.320212245E-1,4.358256817E0,1.567020416E0
3.949694584E0,-5.298663378E-1,4.396934509E0,1.574235916E0
3.954516511E0,-5.395131111E-1,4.426133633E0,1.577329636E0
3.959338386E0,-5.426727533E-1,4.437463760E0,1.591740608E0
3.964160261E0,-5.330783129E-1,4.469232082E0,1.605471611E0
3.968982136E0,-5.389879942E-1,4.472358227E0,1.606455803E0
3.973804063E0,-5.458077192E-1,4.498243809E0,1.618536949E0
3.978625938E0,-5.556038618E-1,4.505103111E0,1.611798286E0
3.983447813E0,-5.477527380E-1,4.518031120E0,1.595745087E0
3.988269688E0,-5.565121174E-1,4.535839081E0,1.584665298E0
3.993091615E0,-5.565628409E-1,4.541842461E0,1.560608864E0
3.997913490E0,-5.476043224E-1,4.541997910E0,1.512760162E0
4.002735365E0,-5.664536953E-1,4.545887470E0,1.462617874E0
4.007557240E0,-5.603045821E-1,4.559614182E0,1.411432266E0
4.012379167E0,-5.588113666E-1,4.558028698E0,1.350772858E0
4.017201042E0,-5.546281934E-1,4.548436642E0,1.289067268E0
4.022022917E0,-5.536810756E-1,4.557104111E0,1.232271194E0
4.026844792E0,-5.462575555E-1,4.562553406E0,1.166067123E0
4.031666719E0,-5.550729036E-1,4.551703930E0,1.097692490E0
4.036488594E0,-5.656554699E-1,4.522289276E0,1.046347618E0
4.041310469E0,-5.493770242E-1,4.524525166E0,9.989089966E-1
4.046132344E0,-5.553185344E-1,4.510646820E0,9.494886398E-1
4.050954271E0,-5.380905271E-1,4.497467995E0,9.280519485E-1
4.055776146E0,-5.288305879E-1,4.469460964E0,9.155073166E-1
4.060598021E0,-5.158609152E-1,4.445850849E0,9.072036743E-1
4.065419896E0,-5.290981531E-1,4.425465584E0,9.044122696E-1
4.070241823E0,-5.317392945E-1,4.373713493E0,9.156217575E-1
4.075063698E0,-5.335115194E-1,4.350415230E0,9.217996597E-1
4.079885573E0,-5.335869789E-1,4.310214996E0,9.422216415E-1
4.084707448E0,-5.201953053E-1,4.284261703E0,9.674282074E-1
4.089529375E0,-5.295433998E-1,4.265384197E0,9.843730927E-1
4.094351250E0,-5.212946534E-1,4.232162476E0,1.011139870E0
4.099173125E0,-5.352231264E-1,4.191876411E0,1.016785622E0
4.103995000E0,-5.322699547E-1,4.155370235E0,1.026558876E0
4.108816927E0,-5.259202123E-1,4.120297432E0,1.028610229E0
4.113638802E0,-5.296883583E-1,4.074845314E0,1.032653809E0
4.118460677E0,-5.319632292E-1,4.017879009E0,1.014878273E0
4.123282552E0,-5.402392745E-1,3.990208149E0,9.682855606E-1
4.128104479E0,-5.189884305E-1,3.945254803E0,9.467649460E-1
4.132926354E0,-5.318440795E-1,3.903410196E0,9.192914963E-1
4.137748229E0,-5.419509411E-1,3.843374491E0,8.836221695E-1
4.142570104E0,-5.567864180E-1,3.789098978E0,8.422088623E-1
4.147392032E0,-5.347086191E-1,3.749087811E0,8.059091568E-1
4.152213907E0,-5.356596708E-1,3.689942837E0,7.795562744E-1
4.157035782E0,-5.417711735E-1,3.644119263E0,7.500905991E-1
4.161857657E0,-5.531792045E-1,3.589014053E0,7.235593796E-1
4.166679584E0,-5.423579216E-1,3.531816483E0,7.035617828E-1
4.171501459E0,-5.343657732E-1,3.476265907E0,6.925525665E-1
4.176323334E0,-5.650664568E-1,3.418880939E0,7.049150467E-1
4.181145209E0,-5.457831621E-1,3.376531124E0,7.096128464E-1
4.185967136E0,-5.541517138E-1,3.331412792E0,7.246360779E-1
4.190789011E0,-5.441870093E-1,3.251887321E0,7.493791580E-1
4.195610886E0,-5.315515995E-1,3.151298523E0,7.666015625E-1
4.200432761E0,-5.207501054E-1,3.071548462E0,7.989597321E-1
4.205254688E0,-5.113636851E-1,2.992271662E0,8.320598602E-1
4.210076563E0,-4.970972240E-1,2.907686949E0,8.374471664E-1
4.214898438E0,-4.870217443E-1,2.827442169E0,8.687381744E-1
4.219720313E0,-4.676845670E-1,2.750302076E0,9.043226242E-1
4.224542240E0,-4.505034387E-1,2.666839838E0,9.299039841E-1
4.229364115E0,-4.113152921E-1,2.581893206E0,9.538393021E-1
4.234185990E0,-4.210819602E-1,2.494438171E0,9.607048035E-1
4.239007917E0,-3.875005841E-1,2.404429674E0,9.707336426E-1
4.243829792E0,-3.650869131E-1,2.314332485E0,9.719991684E-1
4.248651667E0,-3.427071571E-1,2.231363773E0,9.823379517E-1
4.253473542E0,-3.140628338E-1,2.144751787E0,1.000427246E0
4.258295469E0,-2.788770199E-1,2.061663151E0,1.011920929E0
4.263117344E0,-2.688741088E-1,1.987988830E0,1.012077332E0
4.267939219E0,-2.457374334E-1,1.913008213E0,1.054357529E0
4.272761094E0,-2.236554623E-1,1.816553831E0,1.064826965E0
4.277583021E0,-1.930150986E-1,1.718985438E0,1.092378616E0
4.282404896E0,-1.727535725E-1,1.628453493E0,1.133273125E0
4.287226771E0,-1.593877971E-1,1.541477919E0,1.188615799E0
4.292048646E0,-1.315632463E-1,1.440121174E0,1.242860794E0
4.296870573E0,-1.108843088E-1,1.341059804E0,1.298401833E0
4.301692448E0,-9.999483824E-2,1.247827411E0,1.380171776E0
4.306514323E0,-7.772102952E-2,1.153098106E0,1.463051796E0
4.311336250E0,-6.826582551E-2,1.048552036E0,1.554187775E0
4.316158125E0,-6.245714426E-2,9.639066458E-1,1.649984360E0
4.320980000E0,-4.769363999E-2,8.585221767E-1,1.743309021E0
4.325801875E0,-3.162655234E-2,7.562003136E-1,1.841324806E0
4.330623802E0,-2.196961641E-2,6.663456559E-1,1.932150841E0
4.335445677E0,-1.442652941E-2,5.591338277E-1,2.004000664E0
4.340267552E0,7.075771689E-3,4.495103955E-1,2.102790833E0
4.345089427E0,4.913628101E-3,3.480052948E-1,2.195043564E0
4.349911354E0,1.422166824E-4,2.628253400E-1,2.280759811E0
4.354733229E0,1.970420778E-2,1.340443790E-1,2.356356621E0
4.359555104E0,1.528813038E-2,4.410736263E-2,2.420645714E0
4.364376979E0,1.876210980E-2,-4.773387313E-2,2.472433090E0
4.369198907E0,1.302271336E-2,-1.679276526E-1,2.515307426E0
4.374020782E0,2.409342676E-2,-2.866063714E-1,2.560027122E0
4.378842657E0,4.331441224E-2,-4.038893282E-1,2.593440056E0
4.383664532E0,4.430963099E-2,-5.066896677E-1,2.613173485E0
4.388486459E0,5.690862238E-2,-6.117671728E-1,2.622834206E0
4.393308334E0,5.479288101E-2,-7.240848541E-1,2.635601044E0
4.398130209E0,6.320782006E-2,-8.244656324E-1,2.638345718E0
4.402952084E0,7.514782250E-2,-9.381308556E-1,2.635896683E0
4.407774011E0,8.962401003E-2,-1.051943064E0,2.646223068E0
4.412595886E0,1.093677729E-1,-1.150447607E0,2.651436806E0
4.417417761E0,1.204156280E-1,-1.280270696E0,2.656373978E0
4.422239688E0,1.410600543E-1,-1.384008884E0,2.656307220E0
4.427061563E0,1.502817422E-1,-1.490418315E0,2.654888153E0
4.431883438E0,1.701379716E-1,-1.592375159E0,2.677275658E0
4.436705313E0,1.903496832E-1,-1.695741296E0,2.667325974E0
4.441527240E0,2.103047669E-1,-1.808896065E0,2.675319672E0
4.446349115E0,2.365668416E-1,-1.925878763E0,2.660669327E0
4.451170990E0,2.648262382E-1,-2.026252270E0,2.662866592E0
4.455992865E0,2.752948403E-1,-2.132736921E0,2.647287369E0
4.460814792E0,3.018730283E-1,-2.227280617E0,2.599641800E0
4.465636667E0,3.355554044E-1,-2.331368923E0,2.565416336E0
4.470458542E0,3.658924699E-1,-2.438936710E0,2.515944481E0
4.475280417E0,3.753009737E-1,-2.537905693E0,2.456043243E0
4.480102344E0,4.142453074E-1,-2.607832909E0,2.397689819E0
4.484924219E0,4.422525167E-1,-2.683294773E0,2.333727837E0
4.489746094E0,4.630349874E-1,-2.782098055E0,2.254626274E0
4.494567969E0,4.694499969E-1,-2.885026217E0,2.191499710E0
4.499389896E0,4.937496185E-1,-2.960737467E0,2.109648705E0
4.504211771E0,5.202651024E-1,-3.046224594E0,2.040185928E0
4.509033646E0,5.308668613E-1,-3.125761509E0,1.983085632E0
4.513855573E0,5.432230830E-1,-3.202775240E0,1.916807175E0
4.518677448E0,5.653882027E-1,-3.281928062E0,1.849720001E0
4.523499323E0,5.755505562E-1,-3.349938869E0,1.810488701E0
4.528321198E0,6.007729769E-1,-3.414942026E0,1.769134521E0
4.533143125E0,6.011871099E-1,-3.494780540E0,1.729221344E0
4.537965000E0,5.978887081E-1,-3.566505432E0,1.689461708E0
4.542786875E0,6.131064892E-1,-3.624020338E0,1.665320396E0
4.547608750E0,6.092963219E-1,-3.686323881E0,1.644742012E0
4.552430677E0,6.146434546E-1,-3.742475271E0,1.620429039E0
4.557252552E0,6.155755520E-1,-3.809107780E0,1.609018326E0
4.562074427E0,6.008777022E-1,-3.881222963E0,1.590020180E0
4.566896354E0,6.071901321E-1,-3.922836781E0,1.539404869E0
4.571718229E0,6.102609634E-1,-3.974498034E0,1.509648323E0
4.576540104E0,6.037141681E-1,-4.034832954E0,1.459917068E0
4.581361979E0,6.016396284E-1,-4.072708607E0,1.396085739E0
4.586183907E0,6.133816242E-1,-4.126244068E0,1.335919380E0
4.591005782E0,6.159877777E-1,-4.166640282E0,1.262526512E0
4.595827657E0,6.202057600E-1,-4.222549438E0,1.172224045E0
4.600649584E0,6.175117493E-1,-4.254388332E0,1.104289055E0
4.605471459E0,6.091715693E-1,-4.308720589E0,1.037059784E0
4.610293334E0,6.178643703E-1,-4.363940716E0,9.465055466E-1
4.615115209E0,6.185706854E-1,-4.405685425E0,8.779668808E-1
4.619937136E0,6.186281443E-1,-4.435073853E0,7.990245819E-1
4.624759011E0,6.229578853E-1,-4.464091301E0,7.168006897E-1
4.629580886E0,6.281197071E-1,-4.503445625E0,6.682491302E-1
4.634402761E0,6.165134311E-1,-4.547016144E0,6.030063629E-1
4.639224688E0,6.242279410E-1,-4.576925755E0,5.389909744E-1
4.644046563E0,6.503281593E-1,-4.617066383E0,4.940595627E-1
4.648868438E0,6.568270922E-1,-4.644705296E0,4.490098953E-1
4.653690365E0,6.416234374E-1,-4.672971725E0,4.145269394E-1
4.658512240E0,6.517480016E-1,-4.700695038E0,3.846025467E-1
4.663334115E0,6.563410163E-1,-4.732602119E0,3.471984863E-1
4.668155990E0,6.569853425E-1,-4.754402161E0,3.118858337E-1
4.672977917E0,6.682192087E-1,-4.779224396E0,2.845649719E-1
4.677799792E0,6.653437614E-1,-4.804684639E0,2.568359375E-1
4.682621667E0,6.785107851E-1,-4.818889618E0,2.298898697E-1
4.687443594E0,6.960753202E-1,-4.834944725E0,2.048482895E-1
4.692265469E0,7.146891356E-1,-4.838581562E0,1.709671021E-1
4.697087344E0,7.130075097E-1,-4.878798485E0,1.234292984E-1
4.701909219E0,7.092390060E-1,-4.903041840E0,7.302093506E-2
4.706731094E0,7.059636116E-1,-4.914983273E0,3.290653229E-2
4.711553021E0,7.247778177E-1,-4.923033237E0,1.865386963E-3
4.716374896E0,7.287776470E-1,-4.949870110E0,-5.242729187E-2
4.721196771E0,7.491287589E-1,-4.960914612E0,-8.090305328E-2
4.726018698E0,7.380440235E-1,-4.990889549E0,-1.373538971E-1
4.730840573E0,7.219362259E-1,-5.017127037E0,-1.595802307E-1
4.735662448E0,7.486214042E-1,-5.018093586E0,-1.990423203E-1
4.740484323E0,7.354662418E-1,-5.023836136E0,-2.221732140E-1
4.745306250E0,7.338856459E-1,-5.046315193E0,-2.373509407E-1
4.750128125E0,7.354284525E-1,-5.054482937E0,-2.481441498E-1
4.754950000E0,7.351838946E-1,-5.059163094E0,-2.521333694E-1
4.759771927E0,7.425636053E-1,-5.077079773E0,-2.469472885E-1
4.764593802E0,7.323083878E-1,-5.068888187E0,-2.301297188E-1
4.769415677E0,7.329140902E-1,-5.058524132E0,-1.933250427E-1
4.774237552E0,7.393999100E-1,-5.081877708E0,-1.628141403E-1
4.779059479E0,7.228373289E-1,-5.084036350E0,-1.373243332E-1
4.783881354E0,7.271882296E-1,-5.075791359E0,-1.132555008E-1
4.788703229E0,7.223746777E-1,-5.070303440E0,-7.028770447E-2
4.793525157E0,7.104939818E-1,-5.060548306E0,-4.059791565E-2
4.798347032E0,7.139954567E-1,-5.075145721E0,8.735656738E-4
4.803168907E0,7.075277567E-1,-5.036492348E0,4.103851318E-2
4.807990782E0,7.039535642E-1,-5.051021576E0,6.557273865E-2
4.812812709E0,6.910331249E-1,-5.032657623E0,9.362125397E-2
4.817634584E0,6.805654168E-1,-5.041308880E0,1.240806580E-1
4.822456459E0,6.937581301E-1,-5.012468815E0,1.462221146E-1
4.827278334E0,6.694112420E-1,-5.004722118E0,1.504869461E-1
4.832100261E0,6.694979668E-1,-4.988221645E0,1.632232666E-1
4.836922136E0,6.699155569E-1,-4.983319759E0,1.892242432E-1
4.841744011E0,6.537796855E-1,-4.960276604E0,1.819801331E-1
4.846565938E0,6.485066414E-1,-4.929854870E0,1.905288696E-1
4.851387813E0,6.371911168E-1,-4.908870697E0,1.957960129E-1
4.856209688E0,6.340443492E-1,-4.884183407E0,2.037830353E-1
4.861031563E0,6.259933710E-1,-4.859457016E0,2.157669067E-1
4.865853490E0,6.141621470E-1,-4.832311630E0,2.293825150E-1
4.870675365E0,6.224649549E-1,-4.802854538E0,2.566757202E-1
4.875497240E0,6.186563373E-1,-4.777038097E0,2.857027054E-1
4.880319167E0,5.980833769E-1,-4.747730732E0,3.201179504E-1
4.885141042E0,5.967463255E-1,-4.710196018E0,3.635692596E-1
4.889962917E0,6.087257266E-1,-4.662121296E0,4.137382507E-1
4.894784792E0,5.804303288E-1,-4.621458054E0,4.742593765E-1
4.899606719E0,5.706266165E-1,-4.596576214E0,5.236692429E-1
4.904428594E0,5.795190930E-1,-4.549253464E0,5.680255890E-1
4.909250469E0,5.763636827E-1,-4.504637241E0,6.217412949E-1
4.914072396E0,5.673832893E-1,-4.472366810E0,6.717529297E-1
4.918894271E0,5.552700162E-1,-4.405753613E0,7.204580307E-1
4.923716146E0,5.462561846E-1,-4.369450569E0,7.500152588E-1
4.928538021E0,5.550972223E-1,-4.313292980E0,7.868099213E-1
4.933359948E0,5.534154773E-1,-4.263521194E0,8.057289124E-1
4.938181823E0,5.379377604E-1,-4.210655689E0,8.259840012E-1
4.943003698E0,5.329712033E-1,-4.164217472E0,8.404045105E-1
4.947825625E0,5.136147738E-1,-4.112285137E0,8.502225876E-1
4.952647500E0,5.233031511E-1,-4.045397758E0,8.650627136E-1
4.957469375E0,5.071911812E-1,-3.990961552E0,8.777055740E-1
4.962291250E0,5.241867304E-1,-3.940647840E0,8.917713165E-1
4.967113177E0,5.087607503E-1,-3.871731997E0,9.036693573E-1
4.971935052E0,5.088617206E-1,-3.816514969E0,9.205789566E-1
4.976756927E0,4.983417988E-1,-3.746285200E0,9.400997162E-1
4.981578802E0,5.155093670E-1,-3.675373554E0,9.658050537E-1
4.986400729E0,5.031021833E-1,-3.616856337E0,9.857110977E-1
4.991222604E0,4.682967663E-1,-3.549303293E0,1.021383286E0
4.996044479E0,4.648326039E-1,-3.473851919E0,1.066803932E0
5.000866407E0,4.674836993E-1,-3.394068241E0,1.108817101E0
5.005688282E0,4.366555214E-1,-3.318294525E0,1.164155960E0
5.010510157E0,4.390693903E-1,-3.254915714E0,1.214904785E0
5.015332032E0,4.195233285E-1,-3.190646648E0,1.287324905E0
5.020153959E0,4.208123982E-1,-3.092095375E0,1.347971916E0
5.024975834E0,3.971927166E-1,-3.021316528E0,1.417145729E0
5.029797709E0,3.817685246E-1,-2.948439837E0,1.484112740E0
5.034619636E0,3.801378012E-1,-2.857820034E0,1.542876244E0
5.039441511E0,3.560529947E-1,-2.768596172E0,1.608995438E0
5.044263386E0,3.378162384E-1,-2.686666965E0,1.650190353E0
5.049085261E0,3.094882369E-1,-2.607238531E0,1.708327293E0
5.053907188E0,3.197096586E-1,-2.502820730E0,1.730822563E0
5.058729063E0,2.950782180E-1,-2.427087545E0,1.769074440E0
5.063550938E0,2.711510360E-1,-2.331007719E0,1.805155754E0
5.068372813E0,2.618967891E-1,-2.252765417E0,1.821142197E0
5.073194740E0,2.478931248E-1,-2.139772892E0,1.836197853E0
5.078016615E0,2.204941213E-1,-2.070919991E0,1.847957611E0
5.082838490E0,2.142673731E-1,-1.977994442E0,1.864809036E0
5.087660417E0,2.050162554E-1,-1.888418198E0,1.847322464E0
5.092482292E0,1.866514832E-1,-1.802242041E0,1.852949142E0
5.097304167E0,1.615740061E-1,-1.700294971E0,1.856603622E0
5.102126094E0,1.668096483E-1,-1.621966124E0,1.855934143E0
5.106947969E0,1.414683163E-1,-1.526669025E0,1.856994629E0
5.111769844E0,1.227664053E-1,-1.433438182E0,1.866991043E0
5.116591719E0,1.276118904E-1,-1.337532520E0,1.881203651E0
5.121413646E0,1.203984693E-1,-1.246121526E0,1.888938904E0
5.126235521E0,1.014370471E-1,-1.158078790E0,1.916569710E0
5.131057396E0,1.116481423E-1,-1.063693643E0,1.913925171E0
5.135879323E0,9.527330101E-2,-9.798191786E-1,1.931306839E0
5.140701198E0,8.263441920E-2,-8.753783107E-1,1.957994461E0
5.145523073E0,8.849549294E-2,-7.886656523E-1,1.976108551E0
5.150344948E0,8.464662731E-2,-6.862348914E-1,1.988095284E0
5.155166875E0,8.592049032E-2,-6.123671532E-1,1.994005203E0
5.159988750E0,9.161952138E-2,-5.241212845E-1,2.017785072E0
5.164810625E0,8.536604047E-2,-4.095453918E-1,1.998491287E0
5.169632552E0,8.435930312E-2,-3.357152641E-1,2.015071869E0
5.174454427E0,7.826356590E-2,-2.404580712E-1,2.020885468E0
5.179276302E0,6.389740109E-2,-1.621096134E-1,2.017156601E0
5.184098177E0,7.624492049E-2,-5.892959237E-2,2.011072159E0
5.188920104E0,5.693903565E-2,1.513163745E-2,1.997864723E0
5.193741979E0,4.569548368E-2,1.066808477E-1,1.995467186E0
5.198563854E0,3.901606798E-2,1.964848489E-1,1.976392746E0
5.203385729E0,4.892280698E-2,2.879067659E-1,1.960977554E0
5.208207657E0,3.712990880E-2,3.785947561E-1,1.958785057E0
5.213029532E0,1.562955976E-2,4.611088634E-1,1.956658363E0
5.217851407E0,2.014559507E-2,5.581148863E-1,1.943849564E0
5.222673334E0,-6.920129061E-3,6.289209127E-1,1.946675301E0
5.227495209E0,-1.435968280E-2,7.187678218E-1,1.948390007E0
5.232317084E0,-3.365361691E-2,8.048387766E-1,1.970517159E0
5.237139011E0,-4.110521078E-2,8.869296312E-1,1.985538483E0
5.241960886E0,-5.989605188E-2,9.877157211E-1,2.024543762E0
5.246782761E0,-8.319953084E-2,1.074794769E0,2.054039001E0
5.251604636E0,-9.467396140E-2,1.155219793E0,2.083584785E0
5.256426563E0,-1.162940264E-1,1.244372725E0,2.120326996E0
5.261248438E0,-1.114519238E-1,1.331283212E0,2.151074409E0
5.266070313E0,-1.344484091E-1,1.426743507E0,2.181802750E0
5.270892240E0,-1.437439024E-1,1.504329801E0,2.201713562E0
5.275714115E0,-1.600619256E-1,1.582938433E0,2.229870796E0
5.280535990E0,-1.646177620E-1,1.692419767E0,2.235154152E0
5.285357865E0,-1.888614595E-1,1.776481986E0,2.243827820E0
5.290179792E0,-1.888006330E-1,1.862492561E0,2.241474152E0
5.295001667E0,-1.837432384E-1,1.939645529E0,2.236413002E0
5.299823542E0,-1.990627944E-1,2.041265488E0,2.204669952E0
5.304645469E0,-2.145218104E-1,2.121859550E0,2.170112610E0
5.309467344E0,-2.098018229E-1,2.198067188E0,2.120711327E0
5.314289219E0,-2.244401276E-1,2.294992447E0,2.080333710E0
5.319111094E0,-2.308580279E-1,2.382683039E0,2.054877281E0
5.323933021E0,-2.409252971E-1,2.441882133E0,2.011966705E0
5.328754896E0,-2.257554829E-1,2.531153202E0,1.957531929E0
5.333576771E0,-2.187327594E-1,2.613353252E0,1.910640717E0
5.338398698E0,-2.304257900E-1,2.688491344E0,1.876005173E0
5.343220573E0,-2.413064688E-1,2.775645494E0,1.843976974E0
5.348042448E0,-2.464123070E-1,2.847271681E0,1.798947334E0
5.352864323E0,-2.359105945E-1,2.929690361E0,1.762388229E0
5.357686250E0,-2.309352756E-1,2.984524250E0,1.737764359E0
5.362508125E0,-2.287863195E-1,3.069189310E0,1.698719025E0
5.367330000E0,-2.315637022E-1,3.135895252E0,1.690627098E0
5.372151927E0,-2.246042490E-1,3.202476740E0,1.659565926E0
5.376973802E0,-2.194719315E-1,3.263042212E0,1.613889694E0
5.381795677E0,-2.302146554E-1,3.335423946E0,1.575015068E0
5.386617604E0,-2.254959643E-1,3.404155731E0,1.535725594E0
5.391439479E0,-2.313006967E-1,3.466881990E0,1.501936913E0
5.396261354E0,-2.139422596E-1,3.513965368E0,1.443661690E0
5.401083229E0,-2.102750838E-1,3.587291002E0,1.389561653E0
5.405905157E0,-2.152717710E-1,3.628354549E0,1.326453209E0
5.410727032E0,-2.108417153E-1,3.677808285E0,1.271008492E0
5.415548907E0,-2.064269185E-1,3.716520309E0,1.201651573E0
5.420370834E0,-2.175326943E-1,3.789947987E0,1.142266273E0
5.425192709E0,-2.213828862E-1,3.843147278E0,1.072511673E0
5.430014584E0,-2.105035782E-1,3.858142853E0,9.924411774E-1
5.434836459E0,-1.984658539E-1,3.861416817E0,9.226694107E-1
5.439658386E0,-2.162536681E-1,3.888634920E0,8.536014557E-1
5.444480261E0,-2.042715549E-1,3.915941238E0,8.018589020E-1
5.449302136E0,-2.044945657E-1,3.931490660E0,7.423992157E-1
5.454124063E0,-2.003627121E-1,3.925946712E0,6.931104660E-1
5.458945938E0,-1.922277212E-1,3.957241297E0,6.478443146E-1
5.463767813E0,-1.907302439E-1,3.996055126E0,6.256275177E-1
5.468589688E0,-1.901284754E-1,4.019726276E0,5.822420120E-1
5.473411615E0,-1.859242469E-1,4.046238422E0,5.667266846E-1
5.478233490E0,-2.033871263E-1,4.074415684E0,5.647182465E-1
5.483055365E0,-2.140736878E-1,4.118624210E0,5.535125732E-1
5.487877292E0,-2.015388608E-1,4.134681225E0,5.415077209E-1
5.492699167E0,-1.995562762E-1,4.146536350E0,5.239362717E-1
5.497521042E0,-1.939536184E-1,4.155395508E0,5.282878876E-1
5.502342917E0,-1.886190176E-1,4.172049046E0,5.187044144E-1
5.507164844E0,-1.719004810E-1,4.201269150E0,5.023698807E-1
5.511986719E0,-1.654999107E-1,4.216811180E0,4.793186188E-1
5.516808594E0,-1.863707304E-1,4.210394382E0,4.639253616E-1
5.521630521E0,-1.785157025E-1,4.222599983E0,4.501609802E-1
5.526452396E0,-1.648924947E-1,4.229599953E0,4.249238968E-1
5.531274271E0,-1.731034368E-1,4.264876366E0,3.882293701E-1
5.536096198E0,-1.758035123E-1,4.256646156E0,3.615684509E-1
5.540918073E0,-1.695479006E-1,4.252843857E0,3.509378433E-1
5.545739948E0,-1.771114171E-1,4.243919373E0,3.133058548E-1
5.550561823E0,-1.746855676E-1,4.244271278E0,2.905511856E-1
5.555383750E0,-1.562767923E-1,4.229871750E0,2.730369568E-1
5.560205625E0,-1.566263735E-1,4.230772972E0,2.405195236E-1
5.565027500E0,-1.601727307E-1,4.229005337E0,2.312498093E-1
5.569849427E0,-1.584249437E-1,4.205388546E0,2.236557007E-1
5.574671302E0,-1.514131129E-1,4.185121059E0,2.213687897E-1
5.579493177E0,-1.568924338E-1,4.188499928E0,2.255792618E-1
5.584315104E0,-1.484307796E-1,4.162891388E0,2.207355499E-1
5.589136979E0,-1.486534476E-1,4.142995358E0,2.427148819E-1
5.593958854E0,-1.263732612E-1,4.122841835E0,2.616300583E-1
5.598780729E0,-1.447147131E-1,4.110779285E0,2.906303406E-1
5.603602657E0,-1.401199698E-1,4.076962471E0,3.201742172E-1
5.608424532E0,-1.386510581E-1,4.039232254E0,3.478279114E-1
5.613246407E0,-1.221711338E-1,4.022749424E0,3.879747391E-1
5.618068334E0,-1.251203716E-1,3.996333122E0,4.178695679E-1
5.622890209E0,-1.317551285E-1,3.969657898E0,4.459457397E-1
5.627712084E0,-1.274079084E-1,3.915128231E0,4.829177856E-1
5.632533959E0,-1.106640846E-1,3.887764931E0,5.048971176E-1
5.637355886E0,-1.004292816E-1,3.837285519E0,5.094919205E-1
5.642177761E0,-9.648579359E-2,3.799614429E0,5.302171707E-1
5.646999636E0,-8.064079285E-2,3.756709576E0,5.622348785E-1
5.651821563E0,-7.424306870E-2,3.708660364E0,5.661497116E-1
5.656643438E0,-5.673766136E-2,3.663723230E0,5.778083801E-1
5.661465313E0,-5.787226558E-2,3.625523567E0,5.936489105E-1
5.666287240E0,-5.001145601E-2,3.565336704E0,6.124744415E-1
5.671109115E0,-3.182411194E-2,3.509441376E0,6.283130646E-1
5.675930990E0,-3.192448616E-2,3.460195065E0,6.531286240E-1
5.680752917E0,-3.947174549E-2,3.392517567E0,6.761951447E-1
5.685574792E0,-1.389056444E-2,3.350574970E0,7.082729340E-1
5.690396667E0,-8.900552988E-3,3.305660009E0,7.553615570E-1
5.695218542E0,-1.023793221E-2,3.233866453E0,8.055276871E-1
5.700040469E0,1.198869944E-2,3.175705910E0,8.539705276E-1
5.704862344E0,1.393795013E-3,3.105026722E0,9.270887375E-1
5.709684219E0,1.529224217E-2,3.043217659E0,9.997539520E-1
5.714506094E0,2.709452808E-2,2.955601692E0,1.070819855E0
5.719328021E0,2.712166309E-2,2.900790930E0,1.146324158E0
5.724149896E0,3.190964460E-2,2.822449684E0,1.205953598E0
5.728971771E0,3.155295551E-2,2.742157221E0,1.290424347E0
5.733793698E0,3.293675184E-2,2.671867132E0,1.363912582E0
5.738615573E0,3.218904883E-2,2.588896751E0,1.437247276E0
5.743437448E0,4.216492921E-2,2.518246174E0,1.502081871E0
5.748259375E0,4.820494354E-2,2.438407421E0,1.565647125E0
5.753081250E0,4.158196598E-2,2.351788044E0,1.635166168E0
5.757903125E0,3.279102966E-2,2.281132460E0,1.676033974E0
5.762725000E0,2.989473008E-2,2.195317268E0,1.724166870E0
5.767546927E0,3.734224662E-2,2.118265152E0,1.761675835E0
5.772368802E0,2.976874076E-2,2.024881840E0,1.795792580E0
5.777190677E0,2.371348254E-2,1.935537338E0,1.837324142E0
5.782012604E0,2.731795236E-2,1.834701300E0,1.854046822E0
5.786834479E0,2.252338454E-2,1.751150608E0,1.890264511E0
5.791656354E0,1.157493144E-2,1.651330709E0,1.913719177E0
5.796478282E0,3.911200911E-3,1.562857866E0,1.929278374E0
5.801300157E0,6.995834410E-4,1.462987185E0,1.952531815E0
5.806122032E0,4.327822477E-3,1.385320187E0,1.978762627E0
5.810943907E0,-1.146626472E-2,1.267667055E0,1.999653816E0
5.815765834E0,-1.314193197E-2,1.190298319E0,2.030825615E0
5.820587709E0,-6.439067423E-3,1.104090691E0,2.061553955E0
5.825409584E0,-1.755445264E-2,9.829313755E-1,2.087138176E0
5.830231511E0,-9.150223807E-3,8.710512519E-1,2.125560760E0
5.835053386E0,-2.494674176E-3,7.864588499E-1,2.148191452E0
5.839875261E0,-3.434175998E-2,6.897673607E-1,2.169451714E0
5.844697188E0,-1.830035076E-2,5.943046808E-1,2.208524704E0
5.849519063E0,-1.136980951E-2,5.035918355E-1,2.233156204E0
5.854340938E0,-1.321581006E-2,4.058439136E-1,2.250588417E0
5.859162813E0,-6.712511182E-3,2.904137373E-1,2.262064934E0
5.863984740E0,-5.904853344E-3,1.944355965E-1,2.268816948E0
5.868806615E0,6.434157491E-3,1.000780463E-1,2.250560760E0
5.873628490E0,-1.683428884E-3,1.459422708E-2,2.267094612E0
5.878450417E0,3.558769822E-3,-6.905144453E-2,2.246692657E0
5.883272292E0,1.775504649E-2,-1.735057831E-1,2.233614922E0
5.888094167E0,3.154876828E-2,-2.603290379E-1,2.223076820E0
5.892916094E0,3.553462029E-2,-3.676805794E-1,2.192370415E0
5.897737969E0,2.877137065E-2,-4.453015625E-1,2.188118935E0
5.902559844E0,3.645792603E-2,-5.420604944E-1,2.163680077E0
5.907381719E0,5.633264780E-2,-6.386804581E-1,2.128626823E0
5.912203646E0,3.812503815E-2,-7.219481468E-1,2.118810654E0
5.917025521E0,4.992669821E-2,-8.168661594E-1,2.098346710E0
5.921847396E0,6.536900997E-2,-9.101467133E-1,2.099493027E0
5.926669323E0,5.087825656E-2,-9.814209938E-1,2.081583977E0
5.931491198E0,4.682797194E-2,-1.079573512E0,2.072115898E0
5.936313073E0,2.666576207E-2,-1.182919502E0,2.084198952E0
5.941135000E0,4.510033131E-2,-1.256670713E0,2.079541206E0
5.945956875E0,3.726169467E-2,-1.339118004E0,2.088029861E0
5.950778750E0,3.866128623E-2,-1.444461107E0,2.104837418E0
5.955600625E0,2.626040578E-2,-1.512857556E0,2.106023788E0
5.960422552E0,9.237676859E-3,-1.603958130E0,2.115468025E0
5.965244427E0,-8.434355259E-4,-1.679458141E0,2.123562813E0
5.970066302E0,-9.120747447E-3,-1.770380020E0,2.132661819E0
5.974888229E0,-3.867661953E-2,-1.857506037E0,2.136737823E0
5.979710104E0,-4.565215856E-2,-1.935981274E0,2.130965233E0
5.984531979E0,-5.064579844E-2,-2.021286726E0,2.114104271E0
5.989353907E0,-7.665297389E-2,-2.122970104E0,2.101660728E0
5.994175782E0,-7.850866020E-2,-2.190803528E0,2.086413383E0
5.998997657E0,-9.951468557E-2,-2.268922806E0,2.062316895E0
6.003819532E0,-1.133910194E-1,-2.356146812E0,2.041295052E0
6.008641459E0,-1.262282282E-1,-2.439275503E0,2.008952141E0
6.013463334E0,-1.428402066E-1,-2.519476414E0,1.968833923E0
6.018285209E0,-1.430096626E-1,-2.595517397E0,1.919704437E0
6.023107136E0,-1.552579552E-1,-2.674630404E0,1.892621994E0
6.027929011E0,-1.639971286E-1,-2.757934093E0,1.840896606E0
6.032750886E0,-1.786488891E-1,-2.832324743E0,1.806361198E0
6.037572813E0,-1.870861948E-1,-2.906167269E0,1.762669563E0
6.042394688E0,-1.902261525E-1,-2.989035130E0,1.743260384E0
6.047216563E0,-2.046349943E-1,-3.059358597E0,1.715785980E0
6.052038490E0,-2.180259377E-1,-3.137542009E0,1.686223984E0
6.056860365E0,-2.169749737E-1,-3.205627441E0,1.659311295E0
6.061682240E0,-2.119319737E-1,-3.282753468E0,1.640978813E0
6.066504167E0,-2.228698879E-1,-3.361789465E0,1.616855621E0
6.071326042E0,-2.303624004E-1,-3.421214819E0,1.611992836E0
6.076147917E0,-2.353030145E-1,-3.495756149E0,1.573765755E0
6.080969792E0,-2.409729064E-1,-3.562659740E0,1.547558784E0
6.085791719E0,-2.398578823E-1,-3.632797241E0,1.504673958E0
6.090613594E0,-2.341345847E-1,-3.698972225E0,1.468973160E0
6.095435469E0,-2.439367175E-1,-3.745638847E0,1.433218002E0
6.100257396E0,-2.366685271E-1,-3.813551664E0,1.389036179E0
6.105079271E0,-2.408381104E-1,-3.878786802E0,1.337583542E0
6.109901146E0,-2.598412037E-1,-3.942603588E0,1.308720589E0
6.114723021E0,-2.517604232E-1,-3.991856813E0,1.259359360E0
6.119544948E0,-2.500177026E-1,-4.032562733E0,1.205027580E0
6.124366823E0,-2.606107593E-1,-4.111353397E0,1.160048485E0
6.129188698E0,-2.559201121E-1,-4.173253536E0,1.101686478E0
6.134010625E0,-2.634660602E-1,-4.233858585E0,1.056233406E0
6.138832500E0,-2.690134645E-1,-4.278845787E0,1.011713028E0
6.143654375E0,-2.749967575E-1,-4.339370728E0,9.669399261E-1
6.148476302E0,-2.864179015E-1,-4.384260654E0,9.338064194E-1
6.153298177E0,-2.961224914E-1,-4.413621902E0,9.003734589E-1
6.158120052E0,-2.888379991E-1,-4.476447582E0,8.534841537E-1
6.162941979E0,-3.065572381E-1,-4.524948120E0,8.266258240E-1
6.167763854E0,-3.088319898E-1,-4.553145885E0,8.233423233E-1
6.172585729E0,-3.186009824E-1,-4.593367100E0,7.946281433E-1
6.177407657E0,-3.384768367E-1,-4.636055470E0,7.727823257E-1
6.182229532E0,-3.364440203E-1,-4.685931206E0,7.601518631E-1
6.187051407E0,-3.593122363E-1,-4.712002277E0,7.352590561E-1
6.191873334E0,-3.619294763E-1,-4.750077248E0,7.159986496E-1
6.196695209E0,-3.648141623E-1,-4.764324665E0,6.952047348E-1
6.201517084E0,-3.741791248E-1,-4.798904419E0,6.752128601E-1
6.206338959E0,-3.938154578E-1,-4.835974693E0,6.513004303E-1
6.211160886E0,-3.951856196E-1,-4.865969658E0,6.210708618E-1
6.215982761E0,-4.095823765E-1,-4.906711578E0,5.952072144E-1
6.220804636E0,-4.107497334E-1,-4.915253162E0,5.665721893E-1
6.225626563E0,-4.432381094E-1,-4.938129425E0,5.422668457E-1
6.230448438E0,-4.340751171E-1,-4.967004299E0,5.043754578E-1
6.235270313E0,-4.407388270E-1,-4.979160309E0,4.684286118E-1
6.240092240E0,-4.681169987E-1,-5.003275394E0,4.236497879E-1
6.244914115E0,-4.719270766E-1,-5.005849361E0,3.939104080E-1
6.249735990E0,-4.964058995E-1,-5.027551651E0,3.552904129E-1
6.254557917E0,-4.926227331E-1,-5.045610905E0,3.125457764E-1
6.259379792E0,-4.796129167E-1,-5.071940422E0,2.823638916E-1
6.264201667E0,-4.932160378E-1,-5.073027611E0,2.419824600E-1
6.269023542E0,-5.165608525E-1,-5.082430363E0,2.069835663E-1
6.273845469E0,-5.112857223E-1,-5.072577953E0,1.796798706E-1
6.278667344E0,-5.047863126E-1,-5.090014458E0,1.659631729E-1
6.283489219E0,-5.197021961E-1,-5.086951733E0,1.514978409E-1
6.288311146E0,-5.486063361E-1,-5.080029964E0,1.397686005E-1
6.293133021E0,-5.375977159E-1,-5.083635807E0,1.176385880E-1
6.297954896E0,-5.331526399E-1,-5.082179070E0,1.125555038E-1
6.302776823E0,-5.458660126E-1,-5.074418068E0,1.029348373E-1
6.307598698E0,-5.444048643E-1,-5.057991982E0,9.354972839E-2
6.312420573E0,-5.501675606E-1,-5.049559116E0,8.312988281E-2
6.317242500E0,-5.413906574E-1,-5.046709538E0,6.686115265E-2
6.322064375E0,-5.311380625E-1,-5.033804893E0,6.258869171E-2
6.326886250E0,-5.322650671E-1,-5.022857666E0,5.477046967E-2
6.331708177E0,-5.338556767E-1,-5.012569904E0,5.407047272E-2
6.336530052E0,-5.465269089E-1,-4.995733738E0,3.653430939E-2
6.341351927E0,-5.485546589E-1,-4.971148968E0,3.202342987E-2
6.346173802E0,-5.327122808E-1,-4.945975304E0,1.779270172E-2
6.350995729E0,-5.382384062E-1,-4.944064617E0,2.159118652E-3
6.355817604E0,-5.351397395E-1,-4.907978058E0,-1.372718811E-2
6.360639479E0,-5.496205688E-1,-4.899837971E0,-7.210731506E-3
6.365461407E0,-5.504346490E-1,-4.871832848E0,-1.535797119E-2
6.370283282E0,-5.459830761E-1,-4.825065136E0,-2.747344971E-2
6.375105157E0,-5.146686435E-1,-4.799030781E0,-2.679061890E-2
6.379927084E0,-5.353641510E-1,-4.782874584E0,-3.487396240E-2
6.384748959E0,-5.434321761E-1,-4.746708393E0,-2.661037445E-2
6.389570834E0,-5.425797105E-1,-4.721540451E0,-1.279926300E-2
6.394392761E0,-5.483914018E-1,-4.689415455E0,1.612854004E-2
6.399214636E0,-5.297617912E-1,-4.662258625E0,3.506660461E-2
6.404036511E0,-5.214732289E-1,-4.619677544E0,4.641246796E-2
6.408858438E0,-5.319113731E-1,-4.579628944E0,8.248806000E-2
6.413680313E0,-5.481331348E-1,-4.538408279E0,1.050081253E-1
6.418502188E0,-5.438855290E-1,-4.488896370E0,1.499214172E-1
6.423324063E0,-5.563884974E-1,-4.448934078E0,1.837415695E-1
6.428145990E0,-5.511627793E-1,-4.399362564E0,2.292346954E-1
6.432967865E0,-5.343557000E-1,-4.364059448E0,2.720928192E-1
6.437789740E0,-5.432575941E-1,-4.328645706E0,3.016281128E-1
6.442611667E0,-5.338271856E-1,-4.267979622E0,3.513565063E-1
6.447433542E0,-5.492448211E-1,-4.233503342E0,3.735475540E-1
6.452255417E0,-5.419301987E-1,-4.190430641E0,4.100713730E-1
6.457077344E0,-5.324172974E-1,-4.132857800E0,4.383211136E-1
6.461899219E0,-5.507652164E-1,-4.091850758E0,4.750995636E-1
6.466721094E0,-5.386148095E-1,-4.032665253E0,5.204334259E-1
6.471543021E0,-5.404082537E-1,-3.981713057E0,5.457706451E-1
6.476364896E0,-5.359392762E-1,-3.931738615E0,5.894002914E-1
6.481186771E0,-5.241985321E-1,-3.886349440E0,6.298828125E-1
6.486008698E0,-5.328291655E-1,-3.834833384E0,6.697168350E-1
6.490830573E0,-5.296084881E-1,-3.773681641E0,7.185659409E-1
6.495652448E0,-5.218814015E-1,-3.724320650E0,7.573270798E-1
6.500474375E0,-5.228347778E-1,-3.667692184E0,7.873191833E-1
6.505296250E0,-5.121682882E-1,-3.597888708E0,8.433027267E-1
6.510118125E0,-5.006628633E-1,-3.546011448E0,9.038143158E-1
6.514940052E0,-4.942737222E-1,-3.485779762E0,9.593725204E-1
6.519761927E0,-4.940888286E-1,-3.412511349E0,9.957485199E-1
6.524583802E0,-4.892537296E-1,-3.356164455E0,1.060853958E0
6.529405729E0,-4.773455858E-1,-3.307212114E0,1.117701530E0
6.534227604E0,-4.640693069E-1,-3.238197327E0,1.196236610E0
6.539049479E0,-4.565425813E-1,-3.183972359E0,1.241601944E0
6.543871407E0,-4.485265315E-1,-3.102711678E0,1.313632011E0
6.548693282E0,-4.338329434E-1,-3.035164356E0,1.382502556E0
6.553515157E0,-4.134669304E-1,-2.975464821E0,1.442334175E0
6.558337084E0,-3.965862691E-1,-2.899798393E0,1.508731842E0
6.563158959E0,-3.949961960E-1,-2.831064224E0,1.563861847E0
6.567980834E0,-3.903996348E-1,-2.759732008E0,1.612551689E0
6.572802761E0,-3.360032439E-1,-2.688309669E0,1.672796249E0
6.577624636E0,-3.235460520E-1,-2.619374275E0,1.720755577E0
6.582446511E0,-3.228771687E-1,-2.545865059E0,1.768439293E0
6.587268386E0,-3.169583082E-1,-2.459506750E0,1.821855545E0
6.592090313E0,-2.972704768E-1,-2.376052856E0,1.858359337E0
6.596912188E0,-2.922442853E-1,-2.305231333E0,1.911472321E0
6.601734063E0,-2.791190147E-1,-2.226748943E0,1.948931694E0
6.606555990E0,-2.516791224E-1,-2.144370794E0,1.994691849E0
6.611377865E0,-2.338281870E-1,-2.059442997E0,2.057145119E0
6.616199740E0,-2.242105007E-1,-1.981630802E0,2.089689255E0
6.621021667E0,-2.085752189E-1,-1.899089813E0,2.140187263E0
6.625843542E0,-2.001586258E-1,-1.817965746E0,2.193119049E0
6.630665417E0,-1.870349050E-1,-1.712126851E0,2.243726730E0
6.635487344E0,-1.585511565E-1,-1.621067643E0,2.290824890E0
6.640309219E0,-1.519043744E-1,-1.536601186E0,2.340416908E0
6.645131094E0,-1.589683443E-1,-1.445677519E0,2.398488998E0
6.649953021E0,-1.488164365E-1,-1.349546075E0,2.451882362E0
6.654774896E0,-1.242573261E-1,-1.247125149E0,2.505393028E0
6.659596771E0,-1.058535278E-1,-1.150501490E0,2.548260689E0
6.664418698E0,-1.153954118E-1,-1.054964542E0,2.601997375E0
6.669240573E0,-1.090101153E-1,-9.522106647E-1,2.643867493E0
6.674062448E0,-8.820290864E-2,-8.495035768E-1,2.690589905E0
6.678884375E0,-7.603852451E-2,-7.647663355E-1,2.721814156E0
6.683706250E0,-7.167429477E-2,-6.383048296E-1,2.744693756E0
6.688528125E0,-5.981061608E-2,-5.467304587E-1,2.765171051E0
6.693350052E0,-5.036249757E-2,-4.494715929E-1,2.768866539E0
6.698171927E0,-3.880634159E-2,-3.368719816E-1,2.784424782E0
6.702993802E0,-2.423574589E-2,-2.412374914E-1,2.789076805E0
6.707815729E0,-1.031939965E-2,-1.267818511E-1,2.780388832E0
6.712637604E0,-3.256859956E-3,-3.412248194E-2,2.770277977E0
6.717459479E0,2.857314423E-3,8.334764838E-2,2.744350433E0
6.722281407E0,3.184613958E-2,1.730732620E-1,2.720499992E0
6.727103282E0,5.138438568E-2,2.757367790E-1,2.697483063E0
6.731925157E0,6.152873486E-2,3.781284988E-1,2.659713745E0
6.736747032E0,7.198130339E-2,4.815261364E-1,2.632266998E0
6.741568959E0,1.018610373E-1,5.824128389E-1,2.587612152E0
6.746390834E0,1.178755537E-1,6.915686131E-1,2.562778473E0
6.751212761E0,1.250302792E-1,7.947003245E-1,2.520674706E0
6.756034636E0,1.437944323E-1,8.941996694E-1,2.474435806E0
6.760856511E0,1.709907204E-1,9.865998626E-1,2.438392639E0
6.765678386E0,1.852368116E-1,1.096985698E0,2.406533241E0
6.770500313E0,2.047402710E-1,1.190840364E0,2.354949951E0
6.775322188E0,2.286893576E-1,1.280143380E0,2.305163383E0
6.780144115E0,2.405872643E-1,1.392425179E0,2.251185417E0
6.784965990E0,2.658280134E-1,1.482390523E0,2.207363129E0
6.789787865E0,2.856320143E-1,1.565555096E0,2.148572922E0
6.794609792E0,3.014063239E-1,1.662326336E0,2.092758179E0
6.799431667E0,3.301827908E-1,1.748841405E0,2.031551361E0
6.804253542E0,3.458302021E-1,1.834814906E0,1.961390495E0
6.809075417E0,3.389770985E-1,1.933401227E0,1.882281303E0
6.813897344E0,3.851974308E-1,2.001491547E0,1.820506096E0
6.818719219E0,3.840926886E-1,2.078755140E0,1.754571915E0
6.823541146E0,4.051803648E-1,2.174705505E0,1.674917221E0
6.828363021E0,4.233718514E-1,2.259484529E0,1.599492073E0
6.833184896E0,4.339089394E-1,2.340344667E0,1.522336006E0
6.838006823E0,4.367317259E-1,2.417272329E0,1.460179329E0
6.842828698E0,4.509482980E-1,2.490323067E0,1.392704964E0
6.847650573E0,4.632513821E-1,2.577464342E0,1.324719429E0
6.852472500E0,4.639894366E-1,2.645144463E0,1.275323868E0
6.857294375E0,4.744683504E-1,2.698320150E0,1.226616859E0
6.862116250E0,4.981186390E-1,2.762042522E0,1.175003052E0
6.866938125E0,4.988910854E-1,2.831497669E0,1.141991615E0
6.871760052E0,5.255748034E-1,2.894739628E0,1.102469444E0
6.876581927E0,5.240708590E-1,2.960134029E0,1.063606262E0
6.881403854E0,5.181246996E-1,3.034804821E0,1.033750534E0
6.886225729E0,5.397419930E-1,3.098389387E0,1.017646790E0
6.891047604E0,5.407518148E-1,3.166464806E0,9.949617386E-1
6.895869479E0,5.484722257E-1,3.230628252E0,9.668703079E-1
6.900691407E0,5.566480756E-1,3.280000448E0,9.619979858E-1
6.905513282E0,5.555613041E-1,3.327779055E0,9.372873306E-1
6.910335157E0,5.784171820E-1,3.385808229E0,9.130153656E-1
6.915157084E0,5.748178363E-1,3.437384605E0,8.915596008E-1
6.919978959E0,5.911675096E-1,3.511091471E0,8.716545105E-1
6.924800834E0,5.962938666E-1,3.544709206E0,8.484716415E-1
6.929622761E0,6.044647098E-1,3.577626228E0,8.327083588E-1
6.934444636E0,6.130496860E-1,3.625365257E0,8.087797165E-1
6.939266563E0,6.161572337E-1,3.681889057E0,7.790508270E-1
6.944088438E0,6.328788996E-1,3.718348980E0,7.565841675E-1
6.948910313E0,6.320536137E-1,3.762239456E0,7.305822372E-1
6.953732188E0,6.388124228E-1,3.818284512E0,7.201232910E-1
6.958554115E0,6.615133882E-1,3.845778465E0,6.964616776E-1
6.963375990E0,6.597101092E-1,3.884050608E0,6.810493469E-1
6.968197917E0,6.453294754E-1,3.924735546E0,6.571273804E-1
6.973019792E0,6.747922301E-1,3.955722332E0,6.485252380E-1
6.977841667E0,6.775640845E-1,3.993713856E0,6.492061615E-1
6.982663594E0,6.825543046E-1,4.017166138E0,6.459903717E-1
6.987485469E0,6.815141439E-1,4.054631233E0,6.447753906E-1
6.992307344E0,6.937681437E-1,4.086953640E0,6.383628845E-1
6.997129271E0,6.896180511E-1,4.108031273E0,6.481914520E-1
7.001951146E0,7.025997639E-1,4.138150215E0,6.526842117E-1
7.006773021E0,7.151409388E-1,4.173656464E0,6.649627686E-1
7.011594948E0,7.093796730E-1,4.184617996E0,6.646509171E-1
7.016416823E0,7.118057013E-1,4.207988739E0,6.719999313E-1
7.021238698E0,7.106561065E-1,4.219869614E0,6.774282455E-1
7.026060625E0,7.347893715E-1,4.261897564E0,6.855955124E-1
7.030882500E0,7.388489246E-1,4.279137611E0,7.012853622E-1
7.035704375E0,7.338343859E-1,4.275045395E0,7.088556290E-1
7.040526302E0,7.354290485E-1,4.278330803E0,7.250232697E-1
7.045348177E0,7.377433777E-1,4.298438549E0,7.246017456E-1
7.050170052E0,7.528447509E-1,4.304251671E0,7.159414291E-1
7.054991979E0,7.413198948E-1,4.307659626E0,7.408046722E-1
7.059813854E0,7.499442697E-1,4.307438850E0,7.381715775E-1
7.064635729E0,7.356452942E-1,4.311938763E0,7.426958084E-1
7.069457657E0,7.451696396E-1,4.319836617E0,7.614526749E-1
7.074279532E0,7.342609167E-1,4.319209576E0,7.669382095E-1
7.079101407E0,7.471525073E-1,4.329043865E0,7.805805206E-1
7.083923334E0,7.539067864E-1,4.313473701E0,7.999601364E-1
7.088745209E0,7.556790113E-1,4.308360100E0,8.286314011E-1
7.093567084E0,7.548078299E-1,4.283741951E0,8.366546631E-1
7.098389011E0,7.416926622E-1,4.271898746E0,8.790121078E-1
7.103210886E0,7.460868955E-1,4.273946285E0,8.934812546E-1
7.108032761E0,7.463986278E-1,4.233641624E0,9.242696762E-1
7.112854688E0,7.508321404E-1,4.218002319E0,9.594316483E-1
7.117676563E0,7.461870909E-1,4.195812702E0,9.917364120E-1
7.122498438E0,7.334223986E-1,4.170648575E0,1.027149200E0
7.127320365E0,7.339985967E-1,4.143644810E0,1.062059402E0
7.132142240E0,7.237997055E-1,4.118423462E0,1.106054306E0
7.136964115E0,7.301506996E-1,4.090127945E0,1.132807732E0
7.141786042E0,7.301682234E-1,4.053968430E0,1.151910782E0
7.146607917E0,7.164444923E-1,4.008749485E0,1.193257332E0
7.151429792E0,7.116177678E-1,3.975969791E0,1.209042549E0
7.156251719E0,6.999574900E-1,3.936483860E0,1.242338181E0
7.161073594E0,7.004216909E-1,3.887873650E0,1.259676933E0
7.165895521E0,6.960723996E-1,3.819431305E0,1.281447411E0
7.170717396E0,6.713249087E-1,3.786093712E0,1.296913147E0
7.175539271E0,6.618480682E-1,3.731694937E0,1.304947853E0
7.180361146E0,6.615944505E-1,3.678962946E0,1.328322411E0
7.185183073E0,6.453642845E-1,3.619543791E0,1.325262070E0
7.190004948E0,6.309522390E-1,3.567788124E0,1.330512047E0
7.194826875E0,6.147003770E-1,3.514141083E0,1.342944145E0
7.199648750E0,6.145061851E-1,3.444315910E0,1.350699425E0
7.204470625E0,6.040709019E-1,3.385847569E0,1.363438606E0
7.209292552E0,5.965511203E-1,3.326800823E0,1.378859520E0
7.214114427E0,5.751992464E-1,3.255293369E0,1.398269653E0
7.218936302E0,5.604625344E-1,3.192838669E0,1.405022621E0
7.223758229E0,5.522753000E-1,3.125197887E0,1.421970367E0
7.228580104E0,5.424651504E-1,3.052407265E0,1.445631027E0
7.233401979E0,5.382980108E-1,2.984123230E0,1.459393501E0
7.238223907E0,5.196422935E-1,2.907207727E0,1.445450783E0
7.243045782E0,5.056908131E-1,2.826643467E0,1.462549210E0
7.247867657E0,4.918940663E-1,2.759201527E0,1.470127106E0
7.252689584E0,4.676907063E-1,2.684673786E0,1.463549614E0
7.257511459E0,4.516250193E-1,2.579891682E0,1.468292236E0
7.262333334E0,4.364715219E-1,2.487937450E0,1.452255249E0
7.267155261E0,4.365939200E-1,2.396983624E0,1.444204330E0
7.271977136E0,4.237130284E-1,2.309514046E0,1.424008369E0
7.276799011E0,4.076119065E-1,2.236299992E0,1.396606445E0
7.281620938E0,3.920854926E-1,2.127501965E0,1.383496284E0
7.286442813E0,3.833511472E-1,2.042924881E0,1.358550072E0
7.291264740E0,3.649519086E-1,1.937468767E0,1.340929985E0
7.296086615E0,3.585188985E-1,1.869494557E0,1.309255600E0
7.300908490E0,3.497540951E-1,1.764224291E0,1.302876472E0
7.305730417E0,3.377514482E-1,1.678969741E0,1.270588875E0
7.310552292E0,3.214162886E-1,1.585321307E0,1.252997398E0
7.315374167E0,3.115529120E-1,1.510778904E0,1.244072914E0
7.320196094E0,3.046066165E-1,1.431556702E0,1.229516983E0
7.325017969E0,2.768184543E-1,1.330147624E0,1.228390694E0
7.329839844E0,2.770408690E-1,1.248379469E0,1.222783089E0
7.334661771E0,2.705309689E-1,1.174342990E0,1.223406792E0
7.339483646E0,2.465622425E-1,1.097505808E0,1.231398582E0
7.344305521E0,2.289107591E-1,1.005004287E0,1.237195969E0
7.349127448E0,2.221230417E-1,9.147821069E-1,1.237229347E0
7.353949323E0,2.069093585E-1,8.460894823E-1,1.264756203E0
7.358771198E0,1.926118731E-1,7.537065744E-1,1.287482262E0
7.363593125E0,1.719063520E-1,6.735572815E-1,1.310159683E0
7.368415000E0,1.434232891E-1,5.926698446E-1,1.330387115E0
7.373236927E0,1.295350194E-1,5.158243179E-1,1.355257034E0
7.378058802E0,1.072948575E-1,4.288554788E-1,1.374013901E0
7.382880677E0,9.904568642E-2,3.402700722E-1,1.397338867E0
7.387702604E0,7.947068661E-2,2.619728446E-1,1.418027878E0
7.392524479E0,4.725262150E-2,1.963548064E-1,1.444360733E0
7.397346354E0,2.007976174E-2,1.018402576E-1,1.458445549E0
7.402168282E0,-3.486737609E-3,1.778763533E-2,1.489996910E0
7.406990157E0,-3.468695655E-2,-5.612766743E-2,1.521131516E0
7.411812032E0,-4.718694836E-2,-1.463135481E-1,1.549532890E0
7.416633959E0,-6.032515317E-2,-2.383897305E-1,1.573970795E0
7.421455834E0,-9.205552191E-2,-3.287160397E-1,1.605163574E0
7.426277709E0,-1.173405722E-1,-4.185469151E-1,1.627537727E0
7.431099636E0,-1.397718191E-1,-5.126742125E-1,1.663775444E0
7.435921511E0,-1.413389444E-1,-6.016023159E-1,1.691134453E0
7.440743438E0,-1.709651798E-1,-6.758093834E-1,1.722738266E0
7.445565313E0,-2.010629624E-1,-7.652107477E-1,1.747808456E0
7.450387188E0,-2.028011680E-1,-8.853941560E-1,1.780672073E0
7.455209115E0,-2.225952148E-1,-9.659565687E-1,1.802194595E0
7.460030990E0,-2.339169830E-1,-1.072604537E0,1.837445259E0
7.464852865E0,-2.436704040E-1,-1.161272764E0,1.866093636E0
7.469674792E0,-2.564233541E-1,-1.264291167E0,1.909636497E0
7.474496667E0,-2.754806876E-1,-1.348300695E0,1.936980247E0
7.479318542E0,-2.813446820E-1,-1.454040289E0,1.973216057E0
7.484140469E0,-3.012810051E-1,-1.555314898E0,1.993237495E0
7.488962344E0,-3.074853122E-1,-1.646241784E0,2.022138596E0
7.493784219E0,-3.164848089E-1,-1.749564886E0,2.044353485E0
7.498606146E0,-3.196143508E-1,-1.852272034E0,2.059884071E0
7.503428021E0,-3.333597779E-1,-1.931806922E0,2.079493523E0
7.508249948E0,-3.467157483E-1,-2.032480717E0,2.092410088E0
7.513071823E0,-3.559807539E-1,-2.131705999E0,2.114181519E0
7.517893698E0,-3.668561280E-1,-2.240275860E0,2.102956772E0
7.522715625E0,-3.733043075E-1,-2.328414440E0,2.095829964E0
7.527537500E0,-3.752851188E-1,-2.434475183E0,2.095193863E0
7.532359375E0,-3.762867749E-1,-2.526227236E0,2.090289116E0
7.537181302E0,-4.025740623E-1,-2.625338793E0,2.070399284E0
7.542003177E0,-4.207765460E-1,-2.717420340E0,2.058245659E0
7.546825052E0,-4.332746267E-1,-2.802648783E0,2.051475525E0
7.551646979E0,-4.198946953E-1,-2.910957098E0,2.036971092E0
7.556468854E0,-4.357481599E-1,-2.995663404E0,2.005185127E0
7.561290782E0,-4.462946951E-1,-3.076064587E0,1.995638847E0
7.566112657E0,-4.673635960E-1,-3.167614222E0,1.983220100E0
7.570934532E0,-4.763349295E-1,-3.247732639E0,1.960833549E0
7.575756459E0,-4.866499007E-1,-3.335419655E0,1.959551811E0
7.580578334E0,-5.032629967E-1,-3.424814701E0,1.938796043E0
7.585400209E0,-5.324497223E-1,-3.525402546E0,1.921311378E0
7.590222136E0,-5.337682962E-1,-3.606136799E0,1.890410423E0
7.595044011E0,-5.254318714E-1,-3.688502073E0,1.874810219E0
7.599865886E0,-5.506896973E-1,-3.748591423E0,1.845850945E0
7.604687813E0,-5.595846772E-1,-3.825803518E0,1.821484566E0
7.609509688E0,-5.708884597E-1,-3.875667810E0,1.767587662E0
7.614331615E0,-5.721468925E-1,-3.907815456E0,1.724388123E0
7.619153490E0,-6.040561199E-1,-3.960177898E0,1.665655136E0
7.623975365E0,-6.071088910E-1,-3.991136312E0,1.614102364E0
7.628797292E0,-6.255393624E-1,-4.039855480E0,1.557754517E0
7.633619167E0,-6.284096837E-1,-4.070609570E0,1.487177849E0
7.638441042E0,-6.231467724E-1,-4.090461254E0,1.428526878E0
7.643262969E0,-6.203893423E-1,-4.126770496E0,1.343729019E0
7.648084844E0,-6.414601803E-1,-4.188735485E0,1.267342567E0
7.652906719E0,-6.422840357E-1,-4.206096172E0,1.186232567E0
7.657728646E0,-6.420266032E-1,-4.222983360E0,1.115801811E0
7.662550521E0,-6.440451145E-1,-4.244021416E0,1.036906242E0
7.667372396E0,-6.518164277E-1,-4.285696983E0,9.614362717E-1
7.672194323E0,-6.390194893E-1,-4.301493168E0,9.023618698E-1
7.677016198E0,-6.556338668E-1,-4.321105003E0,8.380937576E-1
7.681838125E0,-6.548880339E-1,-4.339729309E0,7.733793259E-1
7.686660000E0,-6.474839449E-1,-4.333471775E0,7.199821472E-1
7.691481875E0,-6.404176354E-1,-4.354632854E0,6.528081894E-1
7.696303802E0,-6.524856091E-1,-4.355456352E0,5.837650299E-1
7.701125677E0,-6.454477310E-1,-4.357319832E0,5.270042419E-1
7.705947604E0,-6.381224990E-1,-4.354226112E0,4.657287598E-1
7.710769479E0,-6.399329901E-1,-4.366232872E0,4.057989120E-1
7.715591354E0,-6.423453093E-1,-4.361072063E0,3.316736221E-1
7.720413282E0,-6.237793565E-1,-4.368510246E0,2.801818848E-1
7.725235157E0,-6.350877285E-1,-4.390952110E0,2.372665405E-1
7.730057032E0,-6.333870888E-1,-4.404242516E0,1.747655869E-1
7.734878959E0,-6.245499849E-1,-4.435814857E0,1.129169464E-1
7.739700834E0,-6.276001334E-1,-4.443782330E0,6.716823578E-2
7.744522709E0,-6.292709112E-1,-4.459130287E0,-1.042842865E-2
7.749344636E0,-6.199375987E-1,-4.493714809E0,-5.900382996E-2
7.754166511E0,-6.080551147E-1,-4.509191990E0,-1.085691452E-1
7.758988438E0,-6.138136387E-1,-4.513923168E0,-1.639862061E-1
7.763810313E0,-6.179488897E-1,-4.512626171E0,-2.169990540E-1
7.768632188E0,-6.110818386E-1,-4.531587124E0,-2.724313736E-1
7.773454115E0,-6.014757156E-1,-4.545529366E0,-3.041582108E-1
7.778275990E0,-6.035420895E-1,-4.556903362E0,-3.444814682E-1
7.783097865E0,-6.018683910E-1,-4.556027412E0,-3.851442337E-1
7.787919792E0,-6.001156569E-1,-4.569209099E0,-4.034786224E-1
7.792741667E0,-5.946681499E-1,-4.574862480E0,-4.426164627E-1
7.797563542E0,-5.987855792E-1,-4.578929901E0,-4.547939301E-1
7.802385469E0,-5.815596581E-1,-4.577780247E0,-4.878969193E-1
7.807207344E0,-5.813794136E-1,-4.578584194E0,-5.001029968E-1
7.812029271E0,-5.875190496E-1,-4.565773487E0,-5.201644897E-1
7.816851146E0,-5.773649812E-1,-4.571537971E0,-5.278382301E-1
7.821673073E0,-5.797986388E-1,-4.562427998E0,-5.314927101E-1
7.826494948E0,-5.709971786E-1,-4.555170059E0,-5.347423553E-1
7.831316823E0,-5.738866329E-1,-4.543761730E0,-5.388011932E-1
7.836138750E0,-5.658560991E-1,-4.529321671E0,-5.568714142E-1
7.840960625E0,-5.637165904E-1,-4.523875237E0,-5.566282272E-1
7.845782500E0,-5.652132034E-1,-4.521342278E0,-5.477085114E-1
7.850604427E0,-5.597535372E-1,-4.499041557E0,-5.480208397E-1
7.855426302E0,-5.617914200E-1,-4.497647762E0,-5.527443886E-1
7.860248177E0,-5.415908694E-1,-4.495538712E0,-5.595245361E-1
7.865070104E0,-5.423561335E-1,-4.467628956E0,-5.408477783E-1
7.869891979E0,-5.424838066E-1,-4.449869156E0,-5.325336456E-1
7.874713907E0,-5.374048352E-1,-4.438599586E0,-5.262098312E-1
7.879535782E0,-5.235919952E-1,-4.406346321E0,-5.146636963E-1
7.884357657E0,-5.310058594E-1,-4.406892776E0,-5.134091377E-1
7.889179584E0,-5.309703350E-1,-4.379304886E0,-4.960784912E-1
7.894001459E0,-5.247392058E-1,-4.351081848E0,-4.781942368E-1
7.898823386E0,-5.147400498E-1,-4.331814766E0,-4.537181854E-1
7.903645261E0,-5.177000761E-1,-4.301162243E0,-4.202337265E-1
7.908467136E0,-5.121180415E-1,-4.281868458E0,-4.015760422E-1
7.913289063E0,-4.979687035E-1,-4.271553993E0,-3.797388077E-1
7.918110938E0,-4.895634949E-1,-4.235595703E0,-3.414974213E-1
7.922932813E0,-4.820341468E-1,-4.212291718E0,-3.154802322E-1
7.927754740E0,-4.896816909E-1,-4.192112923E0,-2.657308578E-1
7.932576615E0,-4.645492435E-1,-4.142804146E0,-2.364292145E-1
7.937398542E0,-4.556624293E-1,-4.125364780E0,-1.987905502E-1
7.942220417E0,-4.497063458E-1,-4.083673477E0,-1.431589127E-1
7.947042292E0,-4.477216005E-1,-4.046447754E0,-1.029481888E-1
7.951864219E0,-4.293607175E-1,-4.018549919E0,-5.531597137E-2
7.956686094E0,-4.194971323E-1,-3.978487015E0,-1.573562622E-2
7.961507969E0,-4.239558578E-1,-3.940713167E0,4.220867157E-2
7.966329896E0,-4.091506302E-1,-3.910122633E0,9.233093262E-2
7.971151771E0,-4.095801711E-1,-3.871155739E0,1.394691467E-1
7.975973698E0,-3.940063715E-1,-3.816795588E0,1.813659668E-1
7.980795573E0,-3.741914034E-1,-3.775799990E0,2.396221161E-1
7.985617448E0,-3.715383410E-1,-3.743495464E0,3.011865616E-1
7.990439375E0,-3.500589430E-1,-3.697241783E0,3.446369171E-1
7.995261250E0,-3.467516303E-1,-3.641981602E0,4.023771286E-1
8.000083125E0,-3.255477250E-1,-3.612459660E0,4.649095535E-1
8.004905052E0,-3.150285482E-1,-3.572941542E0,5.215826035E-1
8.009726927E0,-3.103732169E-1,-3.492432117E0,5.736713409E-1
8.014548854E0,-3.019182086E-1,-3.442829847E0,6.475715637E-1
8.019370729E0,-2.908095717E-1,-3.395537376E0,7.086925507E-1
8.024192604E0,-2.758567631E-1,-3.337549686E0,7.762603760E-1
8.029014532E0,-2.726262510E-1,-3.282170057E0,8.515539169E-1
8.033836407E0,-2.572250962E-1,-3.228232861E0,9.238500595E-1
8.038658334E0,-2.619467080E-1,-3.152096033E0,9.992513657E-1
8.043480209E0,-2.342830598E-1,-3.082499981E0,1.071811676E0
8.048302084E0,-2.353431880E-1,-3.012463331E0,1.158354759E0
8.053124011E0,-2.293365896E-1,-2.969548702E0,1.230227470E0
8.057945886E0,-2.164408863E-1,-2.878546715E0,1.311391830E0
8.062767761E0,-2.111050487E-1,-2.813765526E0,1.381583214E0
8.067589688E0,-2.004076540E-1,-2.734764576E0,1.460001945E0
8.072411563E0,-1.905333102E-1,-2.657042265E0,1.546622276E0
8.077233490E0,-1.793259084E-1,-2.592735529E0,1.613998413E0
8.082055365E0,-1.776645333E-1,-2.497761726E0,1.683690071E0
8.086877240E0,-1.690611392E-1,-2.434333324E0,1.755690575E0
8.091699167E0,-1.645472199E-1,-2.339181423E0,1.825222015E0
8.096521042E0,-1.475429535E-1,-2.245963573E0,1.881545067E0
8.101342917E0,-1.493455023E-1,-2.185759544E0,1.935408592E0
8.106164844E0,-1.450406909E-1,-2.090488434E0,1.995163918E0
8.110986719E0,-1.491434276E-1,-2.010513306E0,2.061993599E0
8.115808646E0,-1.259804666E-1,-1.899197340E0,2.102390289E0
8.120630521E0,-1.198524684E-1,-1.812831283E0,2.154603004E0
8.125452396E0,-1.034473851E-1,-1.715534687E0,2.177953720E0
8.130274323E0,-9.113083780E-2,-1.633652806E0,2.227416992E0
8.135096198E0,-8.891581744E-2,-1.545672894E0,2.256319046E0
8.139918125E0,-9.444426000E-2,-1.431286454E0,2.295720100E0
8.144740000E0,-8.737038076E-2,-1.344355941E0,2.315707207E0
8.149561875E0,-7.237835228E-2,-1.234613180E0,2.344940186E0
8.154383802E0,-7.096335292E-2,-1.124698400E0,2.384563446E0
8.159205677E0,-5.556333438E-2,-1.029080749E0,2.386748314E0
8.164027604E0,-4.625575244E-2,-9.236614704E-1,2.394514084E0
8.168849479E0,-4.418423772E-2,-8.371126652E-1,2.407827377E0
8.173671354E0,-3.231332451E-2,-7.335717678E-1,2.412315369E0
8.178493282E0,-2.604428679E-2,-6.213285327E-1,2.423496246E0
8.183315157E0,-2.459511161E-3,-5.146393776E-1,2.416243553E0
8.188137084E0,1.123106480E-2,-3.978950977E-1,2.408473969E0
8.192958959E0,1.639838517E-2,-3.224094510E-1,2.394200325E0
8.197780834E0,2.402924001E-2,-2.068669051E-1,2.391334534E0
8.202602761E0,3.444519639E-2,-1.120411828E-1,2.355629921E0
8.207424636E0,3.225788474E-2,-9.205363691E-3,2.332522392E0
8.212246563E0,4.878926277E-2,1.113624424E-1,2.312423706E0
8.217068438E0,6.864489615E-2,2.126377076E-1,2.276208878E0
8.221890313E0,7.764461637E-2,3.234062195E-1,2.251373291E0
8.226712240E0,8.788435161E-2,4.282967746E-1,2.218787193E0
8.231534115E0,8.638027310E-2,5.321347713E-1,2.183240891E0
8.236356042E0,8.872646093E-2,6.255086660E-1,2.128019333E0
8.241177917E0,1.080435663E-1,7.180427313E-1,2.080646515E0
8.245999792E0,1.085209250E-1,8.241773248E-1,2.035149574E0
8.250821719E0,1.009523273E-1,9.153180122E-1,1.990356445E0
8.255643594E0,9.363010526E-2,1.017852545E0,1.963017464E0
8.260465469E0,1.091064364E-1,1.105474234E0,1.916092873E0
8.265287396E0,1.102535278E-1,1.221406698E0,1.873543739E0
8.270109271E0,1.077061966E-1,1.304709673E0,1.829420090E0
8.274931198E0,1.311589479E-1,1.399659753E0,1.808850288E0
8.279753073E0,1.278071254E-1,1.488383055E0,1.770020485E0
8.284574948E0,1.249520481E-1,1.562544584E0,1.741666794E0
8.289396875E0,1.211670637E-1,1.654432058E0,1.704689026E0
8.294218750E0,1.114563495E-1,1.741366744E0,1.667503357E0
8.299040677E0,1.111912280E-1,1.835309267E0,1.654039383E0
8.303862552E0,1.033471972E-1,1.939836860E0,1.627255440E0
8.308684427E0,1.140122265E-1,2.011951208E0,1.612302780E0
8.313506354E0,1.094744354E-1,2.094638824E0,1.580508232E0
8.318328229E0,1.003693193E-1,2.177056789E0,1.551026344E0
8.323150157E0,9.483876079E-2,2.260431528E0,1.538230896E0
8.327972032E0,8.199366927E-2,2.324342728E0,1.522989273E0
8.332793907E0,8.917731047E-2,2.397491693E0,1.506527901E0
8.337615834E0,9.361000359E-2,2.476150274E0,1.497215271E0
8.342437709E0,9.164735675E-2,2.555454493E0,1.474736214E0
8.347259636E0,9.401994199E-2,2.631789446E0,1.451078415E0
8.352081511E0,1.018367261E-1,2.694254160E0,1.419059753E0
8.356903386E0,9.126116335E-2,2.759506702E0,1.408567429E0
8.361725313E0,9.100970626E-2,2.835820436E0,1.393283844E0
8.366547188E0,8.800990880E-2,2.903871536E0,1.404251099E0
8.371369115E0,1.062889770E-1,2.967170954E0,1.393633842E0
8.376190990E0,1.005204767E-1,3.055465937E0,1.368601799E0
8.381012865E0,9.363067895E-2,3.095750809E0,1.376956940E0
8.385834792E0,1.024168953E-1,3.151192665E0,1.368407249E0
8.390656667E0,1.019436717E-1,3.228871584E0,1.375213623E0
8.395478594E0,1.115411669E-1,3.279633760E0,1.360268593E0
8.400300469E0,1.075064465E-1,3.333221197E0,1.367747307E0
8.405122344E0,1.199076027E-1,3.390707493E0,1.382032394E0
8.409944271E0,1.023006663E-1,3.445915461E0,1.383904457E0
8.414766146E0,9.553550184E-2,3.532204151E0,1.375707626E0
8.419588073E0,1.044878066E-1,3.582565546E0,1.389664650E0
8.424409948E0,9.704341739E-2,3.647009611E0,1.395753860E0
8.429231823E0,1.056928486E-1,3.684759855E0,1.387917519E0
8.434053750E0,1.090778038E-1,3.724371910E0,1.393542290E0
8.438875625E0,1.036428288E-1,3.802850962E0,1.398208618E0
8.443697552E0,7.883356512E-2,3.861448050E0,1.413749695E0
8.448519427E0,9.075971693E-2,3.901258230E0,1.414945602E0
8.453341302E0,8.819125593E-2,3.934136868E0,1.406480789E0
8.458163229E0,9.034515917E-2,3.997099161E0,1.405014038E0
8.462985104E0,6.606015563E-2,4.029009819E0,1.404428482E0
8.467807032E0,8.349093050E-2,4.096712112E0,1.399816513E0
8.472628907E0,7.569488138E-2,4.142774582E0,1.404249191E0
8.477450834E0,7.610825449E-2,4.175508499E0,1.400876999E0
8.482272709E0,7.030768692E-2,4.229487419E0,1.407515526E0
8.487094584E0,5.307052284E-2,4.251573563E0,1.402101517E0
8.491916511E0,5.701135099E-2,4.267241478E0,1.388433456E0
8.496738386E0,5.218327045E-2,4.258768082E0,1.370110512E0
8.501560313E0,4.687343538E-2,4.268960476E0,1.362492561E0
8.506382188E0,2.797257900E-2,4.271519184E0,1.351184845E0
8.511204063E0,3.456155211E-2,4.286607742E0,1.345633507E0
8.516025990E0,1.529261470E-2,4.287978172E0,1.337421417E0
8.520847865E0,1.428337395E-2,4.317046165E0,1.347965240E0
8.525669740E0,1.452716440E-2,4.339470863E0,1.342693329E0
8.530491667E0,1.585812867E-2,4.364780903E0,1.345445633E0
8.535313542E0,8.643381298E-3,4.394112110E0,1.348960876E0
8.540135469E0,3.454789519E-3,4.421520233E0,1.353211403E0
8.544957344E0,8.647352457E-3,4.426623344E0,1.347353935E0
8.549779219E0,-5.858369172E-3,4.464447498E0,1.337355614E0
8.554601146E0,-1.024913043E-2,4.489559650E0,1.335145950E0
8.559423021E0,-1.659644395E-2,4.488770962E0,1.325110435E0
8.564244948E0,-1.055467129E-2,4.503985882E0,1.314432144E0
8.569066823E0,-2.096970752E-2,4.520807266E0,1.309039116E0
8.573888750E0,-3.348595276E-2,4.516573429E0,1.293399811E0
8.578710625E0,-3.507988527E-2,4.543918133E0,1.273510933E0
8.583532500E0,-4.726720974E-2,4.526206970E0,1.263630867E0
8.588354427E0,-4.611591250E-2,4.524577141E0,1.259053230E0
8.593176302E0,-5.792095885E-2,4.554503441E0,1.227484703E0
8.597998229E0,-5.884246528E-2,4.539483070E0,1.208406448E0
8.602820104E0,-5.839944258E-2,4.534583569E0,1.209010124E0
8.607642032E0,-7.093162090E-2,4.512328148E0,1.193453789E0
8.612463907E0,-7.722812891E-2,4.497824192E0,1.170136452E0
8.617285782E0,-7.487958670E-2,4.485153198E0,1.147499084E0
8.622107709E0,-6.497593224E-2,4.461156845E0,1.130335808E0
8.626929584E0,-7.251719385E-2,4.454578400E0,1.116317749E0
8.631751511E0,-8.908005059E-2,4.434337616E0,1.116234779E0
8.636573386E0,-1.014214754E-1,4.405293465E0,1.091904640E0
8.641395261E0,-1.057453603E-1,4.378272057E0,1.078082085E0
8.646217188E0,-1.104203612E-1,4.353174210E0,1.080719948E0
8.651039063E0,-1.117079705E-1,4.331315517E0,1.060477257E0
8.655860990E0,-1.226482689E-1,4.290082932E0,1.054525375E0
8.660682865E0,-1.095673963E-1,4.248628616E0,1.037799835E0
8.665504792E0,-1.238008887E-1,4.208138466E0,1.029477119E0
8.670326667E0,-1.269264370E-1,4.184242249E0,9.985780716E-1
8.675148542E0,-1.128290743E-1,4.148313046E0,9.942064285E-1
8.679970469E0,-1.089721918E-1,4.117136955E0,9.745817184E-1
8.684792344E0,-1.151790023E-1,4.059700966E0,9.481630325E-1
8.689614271E0,-1.348715872E-1,4.019128323E0,9.257965088E-1
8.694436146E0,-1.189873219E-1,3.967989206E0,9.099550247E-1
8.699258021E0,-1.271833479E-1,3.919526815E0,8.911561966E-1
8.704079948E0,-1.438140571E-1,3.901206493E0,8.694438934E-1
8.708901823E0,-1.341719031E-1,3.822345972E0,8.509244919E-1
8.713723750E0,-1.436006874E-1,3.776329756E0,8.392734528E-1
8.718545625E0,-1.231005490E-1,3.739259720E0,8.393230438E-1
8.723367552E0,-1.371445954E-1,3.674164057E0,8.320188522E-1
8.728189427E0,-1.307276189E-1,3.626543999E0,8.150472641E-1
8.733011302E0,-1.326314509E-1,3.560664415E0,8.064489365E-1
8.737833229E0,-1.345151961E-1,3.520848513E0,8.194360733E-1
8.742655104E0,-1.282669604E-1,3.435995817E0,8.301906586E-1
8.747477032E0,-1.327607632E-1,3.349300385E0,8.353385925E-1
8.752298907E0,-1.397460997E-1,3.276297092E0,8.421173096E-1
8.757120782E0,-1.279047132E-1,3.190874815E0,8.470249176E-1
8.761942709E0,-1.284083575E-1,3.107522964E0,8.572807312E-1
8.766764584E0,-1.281403899E-1,3.031001091E0,8.752470016E-1
8.771586511E0,-1.308202446E-1,2.948294401E0,8.819303513E-1
8.776408386E0,-1.224471927E-1,2.858424425E0,8.976678848E-1
8.781230261E0,-1.103152633E-1,2.779304981E0,9.105520248E-1
8.786052188E0,-1.253811121E-1,2.696655750E0,9.158802032E-1
8.790874063E0,-1.309075654E-1,2.611825705E0,9.363107681E-1
8.795695990E0,-1.212085634E-1,2.530893564E0,9.420967102E-1
8.800517865E0,-1.273346394E-1,2.441971302E0,9.559001923E-1
8.805339792E0,-1.149932519E-1,2.351219177E0,9.836282730E-1
8.810161667E0,-1.295116097E-1,2.280113220E0,9.967060089E-1
8.814983594E0,-1.340111494E-1,2.207112789E0,1.009480476E0
8.819805469E0,-1.251149625E-1,2.109801054E0,1.035018921E0
8.824627344E0,-1.148826927E-1,2.024050474E0,1.061350822E0
8.829449271E0,-1.022532359E-1,1.930802941E0,1.087269783E0
8.834271146E0,-1.346701384E-1,1.840894222E0,1.109221458E0
8.839093073E0,-1.252977997E-1,1.761477828E0,1.141470909E0
8.843914948E0,-1.253866255E-1,1.666360259E0,1.177974701E0
8.848736823E0,-1.264897585E-1,1.572290063E0,1.197322845E0
8.853558750E0,-1.167374104E-1,1.507779956E0,1.238798141E0
8.858380625E0,-1.222339794E-1,1.402607203E0,1.284403801E0
8.863202552E0,-1.083860695E-1,1.303357720E0,1.321029663E0
8.868024427E0,-1.060669720E-1,1.213606954E0,1.374835968E0
8.872846354E0,-1.054918468E-1,1.116624236E0,1.411248207E0
8.877668229E0,-1.053282619E-1,1.024342895E0,1.461237907E0
8.882490104E0,-7.457141578E-2,9.319221377E-1,1.505681992E0
8.887312032E0,-6.078721583E-2,8.429559469E-1,1.545796394E0
8.892133907E0,-6.233677268E-2,7.585216761E-1,1.595825195E0
8.896955834E0,-5.645008385E-2,6.559813023E-1,1.628379822E0
8.901777709E0,-4.765261710E-2,5.544318557E-1,1.677988052E0
8.906599636E0,-4.059417546E-2,4.574267268E-1,1.720765114E0
8.911421511E0,-2.320308983E-2,3.825957179E-1,1.744881630E0
8.916243386E0,-2.978871763E-2,2.632756531E-1,1.778955460E0
8.921065313E0,-4.223614931E-3,1.603172570E-1,1.818142891E0
8.925887188E0,8.307188749E-3,6.521296501E-2,1.848153114E0
8.930709115E0,2.227258682E-2,-3.046680987E-2,1.885665894E0
8.935530990E0,1.291567087E-2,-1.301717758E-1,1.931262016E0
8.940352917E0,3.031900525E-2,-2.204196602E-1,1.966693878E0
8.945174792E0,5.537766218E-2,-3.311792612E-1,2.000345230E0
8.949996667E0,7.029515505E-2,-4.410316050E-1,2.031036377E0
8.954818594E0,8.087351918E-2,-5.320759416E-1,2.069544792E0
8.959640469E0,9.669269621E-2,-6.391005516E-1,2.112299919E0
8.964462396E0,9.966892004E-2,-7.465906143E-1,2.141395569E0
8.969284271E0,1.099943817E-1,-8.653656840E-1,2.177190781E0
8.974106198E0,1.228545457E-1,-9.584245682E-1,2.206561089E0
8.978928073E0,1.104980558E-1,-1.059335589E0,2.247475624E0
8.983749948E0,1.385361552E-1,-1.178850532E0,2.279629707E0
8.988571875E0,1.445979774E-1,-1.275236249E0,2.306666374E0
8.993393750E0,1.500409245E-1,-1.366434574E0,2.331007957E0
8.998215677E0,1.569778919E-1,-1.469247818E0,2.351500511E0
9.003037552E0,1.627441049E-1,-1.594373584E0,2.381319046E0
9.007859479E0,1.791552454E-1,-1.679759741E0,2.395398140E0
9.012681354E0,1.785110384E-1,-1.798258066E0,2.412897110E0
9.017503229E0,1.701135039E-1,-1.892579794E0,2.417124748E0
9.022325157E0,1.837644279E-1,-2.010451794E0,2.410498619E0
9.027147032E0,1.952561438E-1,-2.096937418E0,2.410994530E0
9.031968959E0,2.093654573E-1,-2.185478687E0,2.401889801E0
9.036790834E0,2.102934569E-1,-2.296354532E0,2.376046181E0
9.041612761E0,2.052275985E-1,-2.400818348E0,2.363373756E0
9.046434636E0,2.023785859E-1,-2.488076448E0,2.337585449E0
9.051256511E0,2.220747024E-1,-2.603499413E0,2.310659409E0
9.056078438E0,2.260201871E-1,-2.680077076E0,2.282603264E0
9.060900313E0,2.310081422E-1,-2.785891533E0,2.243869781E0
9.065722240E0,2.334425747E-1,-2.876606464E0,2.218370438E0
9.070544115E0,2.609354258E-1,-2.961752653E0,2.155912399E0
9.075366042E0,2.573724985E-1,-3.047194481E0,2.113890648E0
9.080187917E0,2.515192330E-1,-3.147135735E0,2.077919006E0
9.085009792E0,2.699181437E-1,-3.204071522E0,2.025266647E0
9.089831719E0,3.019129932E-1,-3.288525581E0,1.964326859E0
9.094653594E0,2.925691903E-1,-3.382379532E0,1.920164108E0
9.099475521E0,3.091880679E-1,-3.453257799E0,1.877203941E0
9.104297396E0,3.230949044E-1,-3.515384674E0,1.823451042E0
9.109119323E0,3.237599730E-1,-3.602089882E0,1.758872986E0
9.113941198E0,3.281120658E-1,-3.665504456E0,1.708561897E0
9.118763125E0,3.519240022E-1,-3.743700981E0,1.661670685E0
9.123585000E0,3.605566025E-1,-3.809068680E0,1.607388496E0
9.128406927E0,3.662050068E-1,-3.868689060E0,1.550448418E0
9.133228802E0,3.784932494E-1,-3.945140362E0,1.484809875E0
9.138050677E0,3.999578357E-1,-4.002437592E0,1.419973373E0
9.142872604E0,3.983589411E-1,-4.052361488E0,1.353435516E0
9.147694479E0,4.085990191E-1,-4.108034611E0,1.299498558E0
9.152516407E0,4.234221578E-1,-4.156130791E0,1.241301537E0
9.157338282E0,4.356369376E-1,-4.208489418E0,1.167998314E0
9.162160209E0,4.561246037E-1,-4.275840282E0,1.111822128E0
9.166982084E0,4.620780349E-1,-4.324563503E0,1.037985802E0
9.171803959E0,4.690577090E-1,-4.364173412E0,9.739093781E-1
9.176625886E0,4.686585665E-1,-4.410109043E0,9.218645096E-1
9.181447761E0,4.906448126E-1,-4.452733994E0,8.626279831E-1
9.186269688E0,4.943672419E-1,-4.505111217E0,8.044700623E-1
9.191091563E0,4.987796247E-1,-4.534848690E0,7.663822174E-1
9.195913490E0,5.050145388E-1,-4.569415569E0,7.100143433E-1
9.200735365E0,5.105436444E-1,-4.608800411E0,6.568307877E-1
9.205557292E0,5.200749040E-1,-4.643320084E0,6.114692688E-1
9.210379167E0,5.154711604E-1,-4.671716690E0,5.702228546E-1
9.215201042E0,5.289595127E-1,-4.705987453E0,5.282649994E-1
9.220022969E0,5.412046909E-1,-4.731675148E0,4.973993301E-1
9.224844844E0,5.365765691E-1,-4.760750771E0,4.596252441E-1
9.229666771E0,5.329019427E-1,-4.791944981E0,4.136371613E-1
9.234488646E0,5.383841991E-1,-4.824063301E0,3.808813095E-1
9.239310573E0,5.552821159E-1,-4.841549397E0,3.469114304E-1
9.244132448E0,5.668134689E-1,-4.877882957E0,3.260049820E-1
9.248954375E0,5.596873164E-1,-4.891146183E0,2.905387878E-1
9.253776250E0,5.530077219E-1,-4.929206848E0,2.404928207E-1
9.258598125E0,5.729107261E-1,-4.947812557E0,2.140474319E-1
9.263420052E0,5.775049925E-1,-4.957746506E0,1.812410355E-1
9.268241927E0,5.643910170E-1,-4.973354340E0,1.575536728E-1
9.273063854E0,5.789655447E-1,-4.986280918E0,1.238126755E-1
9.277885729E0,5.781177282E-1,-5.019243240E0,9.790802002E-2
9.282707657E0,5.821913481E-1,-5.014809608E0,6.899070740E-2
9.287529532E0,5.899072289E-1,-5.040065289E0,3.949642181E-2
9.292351459E0,5.894231200E-1,-5.050738811E0,1.655006409E-2
9.297173334E0,5.842652321E-1,-5.052792072E0,-1.903820038E-2
9.301995209E0,6.019985080E-1,-5.082164288E0,-3.137111664E-2
9.306817136E0,5.960125923E-1,-5.087440491E0,-5.396175385E-2
9.311639011E0,5.951099396E-1,-5.100960255E0,-6.407260895E-2
9.316460938E0,6.028786302E-1,-5.110739231E0,-8.445835114E-2
9.321282813E0,6.110785007E-1,-5.116825104E0,-1.007413864E-1
9.326104740E0,6.256891489E-1,-5.113283157E0,-1.081295013E-1
9.330926615E0,6.205689907E-1,-5.122843742E0,-1.161775589E-1
9.335748542E0,6.327625513E-1,-5.119235039E0,-1.332292557E-1
9.340570417E0,6.145814657E-1,-5.145475388E0,-1.437425613E-1
9.345392292E0,6.283705831E-1,-5.135951519E0,-1.308727264E-1
9.350214219E0,6.299325824E-1,-5.142066479E0,-1.328926086E-1
9.355036094E0,6.276867390E-1,-5.126741409E0,-1.438102722E-1
9.359858021E0,6.265648603E-1,-5.125944614E0,-1.551561356E-1
9.364679896E0,6.338018775E-1,-5.116925240E0,-1.585702896E-1
9.369501823E0,6.375802159E-1,-5.106999397E0,-1.443758011E-1
9.374323698E0,6.474860907E-1,-5.108026028E0,-1.496820450E-1
9.379145625E0,6.529457569E-1,-5.103422165E0,-1.432476044E-1
9.383967500E0,6.491624713E-1,-5.100291252E0,-1.239233017E-1
9.388789375E0,6.588859558E-1,-5.073630810E0,-1.227006912E-1
9.393611302E0,6.583330035E-1,-5.088016510E0,-1.084394455E-1
9.398433177E0,6.618976593E-1,-5.050206661E0,-9.784698486E-2
9.403255104E0,6.552839875E-1,-5.036850929E0,-8.483219147E-2
9.408076979E0,6.480621099E-1,-5.023994923E0,-6.460666656E-2
9.412898907E0,6.474419236E-1,-5.000954151E0,-5.024433136E-2
9.417720782E0,6.582289934E-1,-4.980898857E0,-1.420879364E-2
9.422542709E0,6.600697041E-1,-4.965078354E0,4.109382629E-3
9.427364584E0,6.696610451E-1,-4.948759556E0,3.586387634E-2
9.432186511E0,6.738566160E-1,-4.911648750E0,6.077194214E-2
9.437008386E0,6.546967030E-1,-4.871721745E0,9.681224823E-2
9.441830313E0,6.574960947E-1,-4.851783752E0,1.237487793E-1
9.446652188E0,6.630784273E-1,-4.824291706E0,1.595239639E-1
9.451474063E0,6.571264863E-1,-4.791739464E0,2.030258179E-1
9.456295990E0,6.430055499E-1,-4.766123772E0,2.423419952E-1
9.461117865E0,6.494238377E-1,-4.746265411E0,2.846889496E-1
9.465939792E0,6.379695535E-1,-4.692777157E0,3.301239014E-1
9.470761667E0,6.276699901E-1,-4.657132626E0,3.703260422E-1
9.475583594E0,6.304082870E-1,-4.622662067E0,3.958187103E-1
9.480405469E0,6.304564476E-1,-4.575001240E0,4.305200577E-1
9.485227396E0,6.253595352E-1,-4.546524048E0,4.780807495E-1
9.490049271E0,6.162075400E-1,-4.500128269E0,5.277290344E-1
9.494871198E0,6.088274121E-1,-4.451491833E0,5.592327118E-1
9.499693073E0,6.197925806E-1,-4.407766819E0,6.072711945E-1
9.504514948E0,6.108241677E-1,-4.353495598E0,6.623296738E-1
9.509336875E0,6.008890867E-1,-4.303051472E0,6.933546066E-1
9.514158750E0,5.983395576E-1,-4.258854389E0,7.422389984E-1
9.518980677E0,5.755518675E-1,-4.195807934E0,7.838811874E-1
9.523802552E0,5.718703270E-1,-4.131990433E0,8.243455887E-1
9.528624479E0,5.765286088E-1,-4.064925194E0,8.803415298E-1
9.533446354E0,5.799493194E-1,-4.027023315E0,9.136991501E-1
9.538268282E0,5.628554225E-1,-3.963229179E0,9.770107269E-1
9.543090157E0,5.576334596E-1,-3.890378475E0,1.022500038E0
9.547912084E0,5.510835052E-1,-3.828819513E0,1.069334984E0
9.552733959E0,5.420788527E-1,-3.772616386E0,1.100831985E0
9.557555834E0,5.437414646E-1,-3.694171190E0,1.138486862E0
9.562377761E0,5.250421762E-1,-3.636631966E0,1.191921234E0
9.567199636E0,5.136320591E-1,-3.551011801E0,1.234862328E0
9.572021563E0,5.047782660E-1,-3.493490458E0,1.279287338E0
9.576843438E0,4.997789264E-1,-3.424601078E0,1.318045616E0
9.581665365E0,5.071083307E-1,-3.344393730E0,1.354766846E0
9.586487240E0,4.874664545E-1,-3.274408817E0,1.389481544E0
9.591309167E0,4.661779404E-1,-3.206197262E0,1.410236359E0
9.596131042E0,4.815799892E-1,-3.119528770E0,1.443388939E0
9.600952969E0,4.596858323E-1,-3.045423985E0,1.474575996E0
9.605774844E0,4.472776353E-1,-2.967194319E0,1.497862816E0
9.610596771E0,4.505348802E-1,-2.880010605E0,1.531182289E0
9.615418646E0,4.385200143E-1,-2.793457985E0,1.568565369E0
9.620240521E0,4.256554246E-1,-2.708657980E0,1.584903717E0
9.625062448E0,4.192927182E-1,-2.618484497E0,1.614908218E0
9.629884323E0,4.243365526E-1,-2.543230534E0,1.633468628E0
9.634706250E0,4.097558260E-1,-2.451808214E0,1.647780418E0
9.639528125E0,3.948549926E-1,-2.382436037E0,1.672189713E0
9.644350052E0,3.737030029E-1,-2.276463032E0,1.689947128E0
9.649171927E0,3.726533651E-1,-2.178133965E0,1.704655647E0
9.653993854E0,3.749546409E-1,-2.104168415E0,1.722307205E0
9.658815729E0,3.663100004E-1,-2.019958496E0,1.744122505E0
9.663637657E0,3.371149302E-1,-1.928956747E0,1.774855614E0
9.668459532E0,3.388065696E-1,-1.840762615E0,1.797790527E0
9.673281459E0,3.221699595E-1,-1.743336916E0,1.810542107E0
9.678103334E0,3.004300594E-1,-1.636723518E0,1.823902130E0
9.682925261E0,2.889454365E-1,-1.553182721E0,1.831911087E0
9.687747136E0,2.720355392E-1,-1.483056903E0,1.859671593E0
9.692569063E0,2.627447844E-1,-1.362984776E0,1.878504753E0
9.697390938E0,2.274291217E-1,-1.264728904E0,1.889637947E0
9.702212813E0,2.233106643E-1,-1.176240444E0,1.908624649E0
9.707034740E0,2.131779492E-1,-1.070129752E0,1.919963837E0
9.711856615E0,1.993017495E-1,-9.833490252E-1,1.930842400E0
9.716678542E0,1.779054850E-1,-8.932468295E-1,1.943686485E0
9.721500417E0,1.571906358E-1,-7.925759554E-1,1.937004089E0
9.726322344E0,1.430292279E-1,-7.208141088E-1,1.968204498E0
9.731144219E0,1.125469655E-1,-6.205916405E-1,1.957215309E0
9.735966146E0,1.026811227E-1,-5.278105140E-1,1.945940971E0
9.740788021E0,9.301841259E-2,-4.209917784E-1,1.947558403E0
9.745609948E0,7.867539674E-2,-3.431453109E-1,1.944158554E0
9.750431823E0,6.430885196E-2,-2.440732121E-1,1.947727203E0
9.755253750E0,4.040519521E-2,-1.489759684E-1,1.954707146E0
9.760075625E0,1.883734018E-2,-4.235541821E-2,1.936449051E0
9.764897552E0,4.518143833E-3,3.030018508E-2,1.940811157E0
9.769719427E0,-1.216137409E-2,1.168920696E-1,1.922387123E0
9.774541354E0,-3.471956402E-2,2.124506831E-1,1.925447464E0
9.779363229E0,-3.793144226E-2,3.097373843E-1,1.911755562E0
9.784185104E0,-4.690892249E-2,3.956401944E-1,1.910031319E0
9.789007032E0,-5.899633467E-2,4.939261973E-1,1.911916733E0
9.793828907E0,-7.410620153E-2,5.781741142E-1,1.904276848E0
9.798650834E0,-8.724269271E-2,6.662985682E-1,1.890717506E0
9.803472709E0,-1.007772088E-1,7.630287409E-1,1.872457504E0
9.808294636E0,-1.155637503E-1,8.335589170E-1,1.868613243E0
9.813116511E0,-1.183855832E-1,9.232050776E-1,1.867217064E0
9.817938438E0,-1.317228824E-1,1.009188056E0,1.867058754E0
9.822760313E0,-1.506165862E-1,1.092601657E0,1.850199699E0
9.827582240E0,-1.593591869E-1,1.187702894E0,1.838151932E0
9.832404115E0,-1.709948778E-1,1.294345021E0,1.827295303E0
9.837226042E0,-1.828712672E-1,1.356280327E0,1.818792343E0
9.842047917E0,-1.853926182E-1,1.436764121E0,1.798269272E0
